scenario,policy,trial_count,sweep_name,sweep_value,origin_delay,es_availability,local_es_availability,neighbor_es_availability,zipf_alpha,local_es_count,neighbor_group_size,k,neighbor_cache_hot_prob,neighbor_cache_cold_prob,neighbor_cache_rank_gamma,mean_response_time_mean,mean_response_time_std,mean_response_time_stderr,mean_response_time_ci95_low,mean_response_time_ci95_high,p95_response_time_mean,p95_response_time_std,p95_response_time_stderr,p95_response_time_ci95_low,p95_response_time_ci95_high,origin_free_rate_mean,origin_free_rate_std,origin_free_rate_stderr,origin_free_rate_ci95_low,origin_free_rate_ci95_high,local_failure_rate_mean,local_failure_rate_std,local_failure_rate_stderr,local_failure_rate_ci95_low,local_failure_rate_ci95_high,neighbor_attempt_rate_mean,neighbor_attempt_rate_std,neighbor_attempt_rate_stderr,neighbor_attempt_rate_ci95_low,neighbor_attempt_rate_ci95_high,neighbor_failure_rate_mean,neighbor_failure_rate_std,neighbor_failure_rate_stderr,neighbor_failure_rate_ci95_low,neighbor_failure_rate_ci95_high,b2_neighbor_choice_rate_mean,b2_neighbor_choice_rate_std,b2_neighbor_choice_rate_stderr,b2_neighbor_choice_rate_ci95_low,b2_neighbor_choice_rate_ci95_high,b2_advantage_vs_b1_mean
neighbor_availability_x_origin_delay,B0,10,neighbor_availability_x_origin_delay,,80.0,0.82,0.82,0.2,1.1,3,5,3,0.9,0.15,1.0,56.2505,0.411688,0.130187,55.995333,56.505667,101.3649,0.16122,0.050982,101.264975,101.464825,0.55071,0.005632,0.001781,0.54722,0.5542,0.44929,0.005632,0.001781,0.4458,0.45278,0.0,0.0,0.0,0.0,0.0,0.0,0.0,0.0,0.0,0.0,0.0,0.0,0.0,0.0,0.0,
neighbor_availability_x_origin_delay,B1,10,neighbor_availability_x_origin_delay,,80.0,0.82,0.82,0.2,1.1,3,5,3,0.9,0.15,1.0,62.184,0.575885,0.182111,61.827063,62.540937,128.4275,0.18948,0.059919,128.310059,128.544941,0.66149,0.005988,0.001894,0.657778,0.665202,0.44929,0.005632,0.001781,0.4458,0.45278,0.44929,0.005632,0.001781,0.4458,0.45278,0.75341,0.00658,0.002081,0.749332,0.757488,0.0,0.0,0.0,0.0,0.0,
neighbor_availability_x_origin_delay,B2,10,neighbor_availability_x_origin_delay,,80.0,0.82,0.82,0.2,1.1,3,5,3,0.9,0.15,1.0,55.558,0.440152,0.139188,55.285191,55.830809,102.9925,0.235883,0.074593,102.846298,103.138702,0.59444,0.006428,0.002033,0.590456,0.598424,0.44929,0.005632,0.001781,0.4458,0.45278,0.06897,0.003064,0.000969,0.067071,0.070869,0.36613,0.016156,0.005109,0.356116,0.376144,0.15351,0.00697,0.002204,0.14919,0.15783,6.626
neighbor_availability_x_origin_delay,B0,10,neighbor_availability_x_origin_delay,,80.0,0.82,0.82,0.25,1.1,3,5,3,0.9,0.15,1.0,56.1548,0.474426,0.150027,55.860747,56.448853,101.3966,0.148948,0.047101,101.304281,101.488919,0.55217,0.006002,0.001898,0.54845,0.55589,0.44783,0.006002,0.001898,0.44411,0.45155,0.0,0.0,0.0,0.0,0.0,0.0,0.0,0.0,0.0,0.0,0.0,0.0,0.0,0.0,0.0,
neighbor_availability_x_origin_delay,B1,10,neighbor_availability_x_origin_delay,,80.0,0.82,0.82,0.25,1.1,3,5,3,0.9,0.15,1.0,60.7435,0.610544,0.193071,60.365081,61.121919,128.1863,0.163152,0.051593,128.085177,128.287423,0.68468,0.005931,0.001876,0.681004,0.688356,0.44783,0.006002,0.001898,0.44411,0.45155,0.44783,0.006002,0.001898,0.44411,0.45155,0.70408,0.007598,0.002403,0.699371,0.708789,0.0,0.0,0.0,0.0,0.0,
neighbor_availability_x_origin_delay,B2,10,neighbor_availability_x_origin_delay,,80.0,0.82,0.82,0.25,1.1,3,5,3,0.9,0.15,1.0,55.0568,0.450131,0.142344,54.777806,55.335794,104.5177,0.431685,0.136511,104.250139,104.785261,0.61764,0.005871,0.001856,0.614001,0.621279,0.44783,0.006002,0.001898,0.44411,0.45155,0.10108,0.003154,0.000997,0.099125,0.103035,0.35233,0.01438,0.004547,0.343417,0.361243,0.22574,0.007338,0.00232,0.221192,0.230288,5.6867
neighbor_availability_x_origin_delay,B0,10,neighbor_availability_x_origin_delay,,80.0,0.82,0.82,0.3,1.1,3,5,3,0.9,0.15,1.0,56.1458,0.270644,0.085585,55.978053,56.313547,101.3549,0.117998,0.037314,101.281764,101.428036,0.55198,0.003663,0.001158,0.549709,0.554251,0.44802,0.003663,0.001158,0.445749,0.450291,0.0,0.0,0.0,0.0,0.0,0.0,0.0,0.0,0.0,0.0,0.0,0.0,0.0,0.0,0.0,
neighbor_availability_x_origin_delay,B1,10,neighbor_availability_x_origin_delay,,80.0,0.82,0.82,0.3,1.1,3,5,3,0.9,0.15,1.0,59.5065,0.36939,0.116811,59.27755,59.73545,128.0167,0.114106,0.036084,127.945976,128.087424,0.70504,0.003897,0.001232,0.702624,0.707456,0.44802,0.003663,0.001158,0.445749,0.450291,0.44802,0.003663,0.001158,0.445749,0.450291,0.65835,0.004916,0.001554,0.655303,0.661397,0.0,0.0,0.0,0.0,0.0,
neighbor_availability_x_origin_delay,B2,10,neighbor_availability_x_origin_delay,,80.0,0.82,0.82,0.3,1.1,3,5,3,0.9,0.15,1.0,54.6144,0.292038,0.09235,54.433393,54.795407,103.1562,0.249188,0.0788,103.001752,103.310648,0.62484,0.004129,0.001306,0.622281,0.627399,0.44802,0.003663,0.001158,0.445749,0.450291,0.10144,0.002328,0.000736,0.099997,0.102883,0.28167,0.012792,0.004045,0.273741,0.289599,0.22642,0.005305,0.001677,0.223132,0.229708,4.8921
neighbor_availability_x_origin_delay,B0,10,neighbor_availability_x_origin_delay,,80.0,0.82,0.82,0.35,1.1,3,5,3,0.9,0.15,1.0,56.1134,0.32952,0.104203,55.909162,56.317638,101.3481,0.131481,0.041578,101.266607,101.429593,0.55244,0.004289,0.001356,0.549781,0.555099,0.44756,0.004289,0.001356,0.444901,0.450219,0.0,0.0,0.0,0.0,0.0,0.0,0.0,0.0,0.0,0.0,0.0,0.0,0.0,0.0,0.0,
neighbor_availability_x_origin_delay,B1,10,neighbor_availability_x_origin_delay,,80.0,0.82,0.82,0.35,1.1,3,5,3,0.9,0.15,1.0,58.4805,0.370807,0.117259,58.250671,58.710329,127.8443,0.114096,0.03608,127.773583,127.915017,0.72185,0.003463,0.001095,0.719704,0.723996,0.44756,0.004289,0.001356,0.444901,0.450219,0.44756,0.004289,0.001356,0.444901,0.450219,0.62148,0.006207,0.001963,0.617633,0.625327,0.0,0.0,0.0,0.0,0.0,
neighbor_availability_x_origin_delay,B2,10,neighbor_availability_x_origin_delay,,80.0,0.82,0.82,0.35,1.1,3,5,3,0.9,0.15,1.0,54.2094,0.288739,0.091307,54.030438,54.388362,106.1263,0.635849,0.201073,105.732197,106.520403,0.64902,0.003489,0.001103,0.646858,0.651182,0.44756,0.004289,0.001356,0.444901,0.450219,0.13895,0.00256,0.00081,0.137363,0.140537,0.30498,0.011659,0.003687,0.297754,0.312206,0.31046,0.005028,0.00159,0.307344,0.313576,4.2711
neighbor_availability_x_origin_delay,B0,10,neighbor_availability_x_origin_delay,,80.0,0.82,0.82,0.45,1.1,3,5,3,0.9,0.15,1.0,56.1748,0.341391,0.107957,55.963204,56.386396,101.3487,0.178213,0.056356,101.238242,101.459158,0.55152,0.004518,0.001429,0.54872,0.55432,0.44848,0.004518,0.001429,0.44568,0.45128,0.0,0.0,0.0,0.0,0.0,0.0,0.0,0.0,0.0,0.0,0.0,0.0,0.0,0.0,0.0,
neighbor_availability_x_origin_delay,B1,10,neighbor_availability_x_origin_delay,,80.0,0.82,0.82,0.45,1.1,3,5,3,0.9,0.15,1.0,56.5793,0.494099,0.156248,56.273054,56.885546,127.4403,0.105485,0.033357,127.37492,127.50568,0.75407,0.006359,0.002011,0.750128,0.758012,0.44848,0.004518,0.001429,0.44568,0.45128,0.44848,0.004518,0.001429,0.44568,0.45128,0.54837,0.012644,0.003999,0.540533,0.556207,0.0,0.0,0.0,0.0,0.0,
neighbor_availability_x_origin_delay,B2,10,neighbor_availability_x_origin_delay,,80.0,0.82,0.82,0.45,1.1,3,5,3,0.9,0.15,1.0,53.3072,0.33859,0.107072,53.097339,53.517061,105.1204,0.589912,0.186547,104.754768,105.486032,0.67682,0.006135,0.00194,0.673018,0.680622,0.44848,0.004518,0.001429,0.44568,0.45128,0.16608,0.005857,0.001852,0.16245,0.16971,0.24574,0.012603,0.003985,0.237929,0.253551,0.37032,0.012394,0.003919,0.362638,0.378002,3.2721
neighbor_availability_x_origin_delay,B0,10,neighbor_availability_x_origin_delay,,80.0,0.82,0.82,0.55,1.1,3,5,3,0.9,0.15,1.0,56.0625,0.375919,0.118876,55.829503,56.295497,101.362,0.19187,0.060675,101.243078,101.480922,0.55303,0.004818,0.001524,0.550044,0.556016,0.44697,0.004818,0.001524,0.443984,0.449956,0.0,0.0,0.0,0.0,0.0,0.0,0.0,0.0,0.0,0.0,0.0,0.0,0.0,0.0,0.0,
neighbor_availability_x_origin_delay,B1,10,neighbor_availability_x_origin_delay,,80.0,0.82,0.82,0.55,1.1,3,5,3,0.9,0.15,1.0,54.8741,0.433917,0.137216,54.605156,55.143044,127.0489,0.137584,0.043508,126.963624,127.134176,0.78142,0.004109,0.001299,0.778873,0.783967,0.44697,0.004818,0.001524,0.443984,0.449956,0.44697,0.004818,0.001524,0.443984,0.449956,0.48901,0.006268,0.001982,0.485125,0.492895,0.0,0.0,0.0,0.0,0.0,
neighbor_availability_x_origin_delay,B2,10,neighbor_availability_x_origin_delay,,80.0,0.82,0.82,0.55,1.1,3,5,3,0.9,0.15,1.0,52.5322,0.363375,0.114909,52.306978,52.757422,106.7105,0.686198,0.216995,106.28519,107.13581,0.70285,0.005022,0.001588,0.699737,0.705963,0.44697,0.004818,0.001524,0.443984,0.449956,0.19496,0.004263,0.001348,0.192318,0.197602,0.2316,0.007549,0.002387,0.226921,0.236279,0.4362,0.008476,0.00268,0.430947,0.441453,2.3419
neighbor_availability_x_origin_delay,B0,10,neighbor_availability_x_origin_delay,,80.0,0.82,0.82,0.65,1.1,3,5,3,0.9,0.15,1.0,56.1215,0.183798,0.058122,56.007581,56.235419,101.3792,0.153881,0.048661,101.283824,101.474576,0.55244,0.002334,0.000738,0.550993,0.553887,0.44756,0.002334,0.000738,0.446113,0.449007,0.0,0.0,0.0,0.0,0.0,0.0,0.0,0.0,0.0,0.0,0.0,0.0,0.0,0.0,0.0,
neighbor_availability_x_origin_delay,B1,10,neighbor_availability_x_origin_delay,,80.0,0.82,0.82,0.65,1.1,3,5,3,0.9,0.15,1.0,53.4047,0.256453,0.081098,53.245749,53.563651,126.6276,0.146104,0.046202,126.537044,126.718156,0.80658,0.00274,0.000866,0.804882,0.808278,0.44756,0.002334,0.000738,0.446113,0.449007,0.44756,0.002334,0.000738,0.446113,0.449007,0.43215,0.004831,0.001528,0.429156,0.435144,0.0,0.0,0.0,0.0,0.0,
neighbor_availability_x_origin_delay,B2,10,neighbor_availability_x_origin_delay,,80.0,0.82,0.82,0.65,1.1,3,5,3,0.9,0.15,1.0,51.8204,0.275598,0.087152,51.649583,51.991217,120.3752,2.870774,0.907818,118.595876,122.154524,0.73481,0.00362,0.001145,0.732566,0.737054,0.44756,0.002334,0.000738,0.446113,0.449007,0.23718,0.003452,0.001092,0.235041,0.239319,0.23104,0.010623,0.003359,0.224456,0.237624,0.52994,0.006335,0.002003,0.526014,0.533866,1.5843
neighbor_availability_x_origin_delay,B0,10,neighbor_availability_x_origin_delay,,80.0,0.82,0.82,0.82,1.1,3,5,3,0.9,0.15,1.0,56.1883,0.296176,0.093659,56.004728,56.371872,101.4043,0.11711,0.037033,101.331715,101.476885,0.55156,0.004013,0.001269,0.549073,0.554047,0.44844,0.004013,0.001269,0.445953,0.450927,0.0,0.0,0.0,0.0,0.0,0.0,0.0,0.0,0.0,0.0,0.0,0.0,0.0,0.0,0.0,
neighbor_availability_x_origin_delay,B1,10,neighbor_availability_x_origin_delay,,80.0,0.82,0.82,0.82,1.1,3,5,3,0.9,0.15,1.0,51.7321,0.294555,0.093147,51.549533,51.914667,126.1104,0.134237,0.042449,126.027199,126.193601,0.8351,0.003382,0.001069,0.833004,0.837196,0.44844,0.004013,0.001269,0.445953,0.450927,0.44844,0.004013,0.001269,0.445953,0.450927,0.36772,0.007397,0.002339,0.363135,0.372305,0.0,0.0,0.0,0.0,0.0,
neighbor_availability_x_origin_delay,B2,10,neighbor_availability_x_origin_delay,,80.0,0.82,0.82,0.82,1.1,3,5,3,0.9,0.15,1.0,50.6778,0.307188,0.097141,50.487403,50.868197,124.8307,0.101006,0.031941,124.768096,124.893304,0.82534,0.003598,0.001138,0.82311,0.82757,0.44844,0.004013,0.001269,0.445953,0.450927,0.38987,0.005496,0.001738,0.386464,0.393276,0.29775,0.00742,0.002346,0.293151,0.302349,0.86936,0.006102,0.00193,0.865578,0.873142,1.0543
neighbor_availability_x_origin_delay,B0,10,neighbor_availability_x_origin_delay,,120.0,0.82,0.82,0.2,1.1,3,5,3,0.9,0.15,1.0,74.2237,0.464291,0.146822,73.935929,74.511471,141.336,0.141292,0.04468,141.248427,141.423573,0.55071,0.004013,0.001269,0.548223,0.553197,0.44929,0.004013,0.001269,0.446803,0.451777,0.0,0.0,0.0,0.0,0.0,0.0,0.0,0.0,0.0,0.0,0.0,0.0,0.0,0.0,0.0,
neighbor_availability_x_origin_delay,B1,10,neighbor_availability_x_origin_delay,,120.0,0.82,0.82,0.2,1.1,3,5,3,0.9,0.15,1.0,75.6309,0.710706,0.224745,75.1904,76.0714,168.4114,0.116264,0.036766,168.339339,168.483461,0.66244,0.005475,0.001731,0.659047,0.665833,0.44929,0.004013,0.001269,0.446803,0.451777,0.44929,0.004013,0.001269,0.446803,0.451777,0.75128,0.006762,0.002138,0.747089,0.755471,0.0,0.0,0.0,0.0,0.0,
neighbor_availability_x_origin_delay,B2,10,neighbor_availability_x_origin_delay,,120.0,0.82,0.82,0.2,1.1,3,5,3,0.9,0.15,1.0,71.1947,0.59317,0.187577,70.827049,71.562351,161.4456,0.31703,0.100254,161.249103,161.642097,0.61498,0.005145,0.001627,0.611791,0.618169,0.44929,0.004013,0.001269,0.446803,0.451777,0.12136,0.003854,0.001219,0.118971,0.123749,0.47034,0.01624,0.005136,0.460274,0.480406,0.2701,0.007647,0.002418,0.26536,0.27484,4.4362
neighbor_availability_x_origin_delay,B0,10,neighbor_availability_x_origin_delay,,120.0,0.82,0.82,0.25,1.1,3,5,3,0.9,0.15,1.0,74.0239,0.276128,0.087319,73.852754,74.195046,141.3793,0.153841,0.048649,141.283948,141.474652,0.55244,0.002334,0.000738,0.550993,0.553887,0.44756,0.002334,0.000738,0.446113,0.449007,0.0,0.0,0.0,0.0,0.0,0.0,0.0,0.0,0.0,0.0,0.0,0.0,0.0,0.0,0.0,
neighbor_availability_x_origin_delay,B1,10,neighbor_availability_x_origin_delay,,120.0,0.82,0.82,0.25,1.1,3,5,3,0.9,0.15,1.0,73.1965,0.355843,0.112528,72.975946,73.417054,168.2136,0.200959,0.063549,168.089044,168.338156,0.68603,0.002625,0.00083,0.684403,0.687657,0.44756,0.002334,0.000738,0.446113,0.449007,0.44756,0.002334,0.000738,0.446113,0.449007,0.70151,0.003391,0.001072,0.699408,0.703612,0.0,0.0,0.0,0.0,0.0,
neighbor_availability_x_origin_delay,B2,10,neighbor_availability_x_origin_delay,,120.0,0.82,0.82,0.25,1.1,3,5,3,0.9,0.15,1.0,69.8831,0.374656,0.118477,69.650886,70.115314,163.4903,0.143261,0.045303,163.401506,163.579094,0.64299,0.003234,0.001023,0.640985,0.644995,0.44756,0.002334,0.000738,0.446113,0.449007,0.17551,0.002815,0.00089,0.173765,0.177255,0.48403,0.011391,0.003602,0.47697,0.49109,0.39214,0.005876,0.001858,0.388498,0.395782,3.3134
neighbor_availability_x_origin_delay,B0,10,neighbor_availability_x_origin_delay,,120.0,0.82,0.82,0.3,1.1,3,5,3,0.9,0.15,1.0,73.9755,0.889699,0.281348,73.424059,74.526941,141.3498,0.17671,0.055881,141.240274,141.459326,0.55282,0.00776,0.002454,0.54801,0.55763,0.44718,0.00776,0.002454,0.44237,0.45199,0.0,0.0,0.0,0.0,0.0,0.0,0.0,0.0,0.0,0.0,0.0,0.0,0.0,0.0,0.0,
neighbor_availability_x_origin_delay,B1,10,neighbor_availability_x_origin_delay,,120.0,0.82,0.82,0.3,1.1,3,5,3,0.9,0.15,1.0,71.2575,0.885485,0.280015,70.708671,71.806329,168.0238,0.195908,0.061952,167.902375,168.145225,0.70521,0.0058,0.001834,0.701615,0.708805,0.44718,0.00776,0.002454,0.44237,0.45199,0.44718,0.00776,0.002454,0.44237,0.45199,0.65923,0.006246,0.001975,0.655359,0.663101,0.0,0.0,0.0,0.0,0.0,
neighbor_availability_x_origin_delay,B2,10,neighbor_availability_x_origin_delay,,120.0,0.82,0.82,0.3,1.1,3,5,3,0.9,0.15,1.0,68.6925,0.841428,0.266083,68.170978,69.214022,163.6501,0.196728,0.062211,163.528166,163.772034,0.66038,0.007113,0.002249,0.655971,0.664789,0.44718,0.00776,0.002454,0.44237,0.45199,0.19547,0.005087,0.001609,0.192317,0.198623,0.44973,0.010424,0.003296,0.443269,0.456191,0.43717,0.010947,0.003462,0.430385,0.443955,2.565
neighbor_availability_x_origin_delay,B0,10,neighbor_availability_x_origin_delay,,120.0,0.82,0.82,0.35,1.1,3,5,3,0.9,0.15,1.0,74.3052,0.740671,0.234221,73.846128,74.764272,141.3803,0.177972,0.05628,141.269992,141.490608,0.54995,0.006278,0.001985,0.546059,0.553841,0.45005,0.006278,0.001985,0.446159,0.453941,0.0,0.0,0.0,0.0,0.0,0.0,0.0,0.0,0.0,0.0,0.0,0.0,0.0,0.0,0.0,
neighbor_availability_x_origin_delay,B1,10,neighbor_availability_x_origin_delay,,120.0,0.82,0.82,0.35,1.1,3,5,3,0.9,0.15,1.0,69.5508,0.709147,0.224252,69.111266,69.990334,167.804,0.179174,0.05666,167.692947,167.915053,0.72351,0.004701,0.001487,0.720596,0.726424,0.45005,0.006278,0.001985,0.446159,0.453941,0.45005,0.006278,0.001985,0.446159,0.453941,0.61436,0.007334,0.002319,0.609814,0.618906,0.0,0.0,0.0,0.0,0.0,
neighbor_availability_x_origin_delay,B2,10,neighbor_availability_x_origin_delay,,120.0,0.82,0.82,0.35,1.1,3,5,3,0.9,0.15,1.0,67.6711,0.588969,0.186248,67.306053,68.036147,164.1384,0.140936,0.044568,164.051047,164.225753,0.68071,0.004344,0.001374,0.678017,0.683403,0.45005,0.006278,0.001985,0.446159,0.453941,0.23006,0.004526,0.001431,0.227255,0.232865,0.43167,0.011435,0.003616,0.424583,0.438757,0.51119,0.007498,0.002371,0.506543,0.515837,1.8797
neighbor_availability_x_origin_delay,B0,10,neighbor_availability_x_origin_delay,,120.0,0.82,0.82,0.45,1.1,3,5,3,0.9,0.15,1.0,74.1374,0.561458,0.177549,73.789404,74.485396,141.3997,0.13065,0.041315,141.318722,141.480678,0.55143,0.004958,0.001568,0.548357,0.554503,0.44857,0.004958,0.001568,0.445497,0.451643,0.0,0.0,0.0,0.0,0.0,0.0,0.0,0.0,0.0,0.0,0.0,0.0,0.0,0.0,0.0,
neighbor_availability_x_origin_delay,B1,10,neighbor_availability_x_origin_delay,,120.0,0.82,0.82,0.45,1.1,3,5,3,0.9,0.15,1.0,66.3934,0.617385,0.195234,66.010741,66.776059,167.4053,0.15591,0.049303,167.308666,167.501934,0.75447,0.00477,0.001508,0.751514,0.757426,0.44857,0.004958,0.001568,0.445497,0.451643,0.44857,0.004958,0.001568,0.445497,0.451643,0.54738,0.008593,0.002717,0.542054,0.552706,0.0,0.0,0.0,0.0,0.0,
neighbor_availability_x_origin_delay,B2,10,neighbor_availability_x_origin_delay,,120.0,0.82,0.82,0.45,1.1,3,5,3,0.9,0.15,1.0,65.1064,0.573896,0.181482,64.750696,65.462104,166.5523,0.159427,0.050415,166.453486,166.651114,0.74978,0.004486,0.001419,0.746999,0.752561,0.44857,0.004958,0.001568,0.445497,0.451643,0.38585,0.005032,0.001591,0.382731,0.388969,0.48594,0.008111,0.002565,0.480913,0.490967,0.86016,0.004461,0.001411,0.857395,0.862925,1.287
neighbor_availability_x_origin_delay,B0,10,neighbor_availability_x_origin_delay,,120.0,0.82,0.82,0.55,1.1,3,5,3,0.9,0.15,1.0,74.2376,0.744145,0.235319,73.776374,74.698826,141.3672,0.109859,0.034741,141.299108,141.435292,0.55039,0.006506,0.002057,0.546357,0.554423,0.44961,0.006506,0.002057,0.445577,0.453643,0.0,0.0,0.0,0.0,0.0,0.0,0.0,0.0,0.0,0.0,0.0,0.0,0.0,0.0,0.0,
neighbor_availability_x_origin_delay,B1,10,neighbor_availability_x_origin_delay,,120.0,0.82,0.82,0.55,1.1,3,5,3,0.9,0.15,1.0,63.8066,0.687365,0.217364,63.380567,64.232633,166.9897,0.130951,0.04141,166.908536,167.070864,0.78059,0.004513,0.001427,0.777793,0.783387,0.44961,0.006506,0.002057,0.445577,0.453643,0.44961,0.006506,0.002057,0.445577,0.453643,0.488,0.006663,0.002107,0.48387,0.49213,0.0,0.0,0.0,0.0,0.0,
neighbor_availability_x_origin_delay,B2,10,neighbor_availability_x_origin_delay,,120.0,0.82,0.82,0.55,1.1,3,5,3,0.9,0.15,1.0,62.686,0.68228,0.215756,62.263119,63.108881,166.0192,0.174334,0.055129,165.911147,166.127253,0.77442,0.004999,0.001581,0.771322,0.777518,0.44961,0.006506,0.002057,0.445577,0.453643,0.38755,0.005455,0.001725,0.384169,0.390931,0.42193,0.00785,0.002482,0.417065,0.426795,0.862,0.007052,0.00223,0.857629,0.866371,1.1206
neighbor_availability_x_origin_delay,B0,10,neighbor_availability_x_origin_delay,,120.0,0.82,0.82,0.65,1.1,3,5,3,0.9,0.15,1.0,74.4248,0.520389,0.164561,74.10226,74.74734,141.387,0.179599,0.056794,141.275683,141.498317,0.54873,0.004663,0.001474,0.54584,0.55162,0.45127,0.004663,0.001474,0.44838,0.45416,0.0,0.0,0.0,0.0,0.0,0.0,0.0,0.0,0.0,0.0,0.0,0.0,0.0,0.0,0.0,
neighbor_availability_x_origin_delay,B1,10,neighbor_availability_x_origin_delay,,120.0,0.82,0.82,0.65,1.1,3,5,3,0.9,0.15,1.0,61.4722,0.590832,0.186837,61.105999,61.838401,166.6248,0.137486,0.043477,166.539585,166.710015,0.80461,0.004646,0.001469,0.80173,0.80749,0.45127,0.004663,0.001474,0.44838,0.45416,0.45127,0.004663,0.001474,0.44838,0.45416,0.43295,0.008255,0.00261,0.427834,0.438066,0.0,0.0,0.0,0.0,0.0,
neighbor_availability_x_origin_delay,B2,10,neighbor_availability_x_origin_delay,,120.0,0.82,0.82,0.65,1.1,3,5,3,0.9,0.15,1.0,60.5047,0.548503,0.173452,60.164734,60.844666,165.5879,0.135056,0.042708,165.504191,165.671609,0.79779,0.004776,0.00151,0.79483,0.80075,0.45127,0.004663,0.001474,0.44838,0.45416,0.39236,0.004876,0.001542,0.389338,0.395382,0.36524,0.00775,0.002451,0.360436,0.370044,0.86944,0.006475,0.002048,0.865427,0.873453,0.9675
neighbor_availability_x_origin_delay,B0,10,neighbor_availability_x_origin_delay,,120.0,0.82,0.82,0.82,1.1,3,5,3,0.9,0.15,1.0,73.6331,0.527079,0.166677,73.306413,73.959787,141.3063,0.091603,0.028967,141.249524,141.363076,0.55576,0.004622,0.001462,0.552895,0.558625,0.44424,0.004622,0.001462,0.441375,0.447105,0.0,0.0,0.0,0.0,0.0,0.0,0.0,0.0,0.0,0.0,0.0,0.0,0.0,0.0,0.0,
neighbor_availability_x_origin_delay,B1,10,neighbor_availability_x_origin_delay,,120.0,0.82,0.82,0.82,1.1,3,5,3,0.9,0.15,1.0,57.9861,0.384041,0.121444,57.748069,58.224131,166.0907,0.092959,0.029396,166.033084,166.148316,0.83662,0.002472,0.000782,0.835088,0.838152,0.44424,0.004622,0.001462,0.441375,0.447105,0.44424,0.004622,0.001462,0.441375,0.447105,0.36779,0.004914,0.001554,0.364744,0.370836,0.0,0.0,0.0,0.0,0.0,
neighbor_availability_x_origin_delay,B2,10,neighbor_availability_x_origin_delay,,120.0,0.82,0.82,0.82,1.1,3,5,3,0.9,0.15,1.0,57.2798,0.367323,0.116158,57.052131,57.507469,164.9361,0.113838,0.035999,164.865543,165.006657,0.82995,0.002509,0.000793,0.828395,0.831505,0.44424,0.004622,0.001462,0.441375,0.447105,0.3952,0.004664,0.001475,0.392309,0.398091,0.30621,0.005371,0.001698,0.302881,0.309539,0.88959,0.004282,0.001354,0.886936,0.892244,0.7063
neighbor_availability_x_origin_delay,B0,10,neighbor_availability_x_origin_delay,,180.0,0.82,0.82,0.2,1.1,3,5,3,0.9,0.15,1.0,100.7871,0.827547,0.261693,100.274181,101.300019,201.4632,0.117744,0.037234,201.390221,201.536179,0.55312,0.004775,0.00151,0.55016,0.55608,0.44688,0.004775,0.00151,0.44392,0.44984,0.0,0.0,0.0,0.0,0.0,0.0,0.0,0.0,0.0,0.0,0.0,0.0,0.0,0.0,0.0,
neighbor_availability_x_origin_delay,B1,10,neighbor_availability_x_origin_delay,,180.0,0.82,0.82,0.2,1.1,3,5,3,0.9,0.15,1.0,95.7126,1.002439,0.316999,95.091282,96.333918,228.5551,0.142739,0.045138,228.46663,228.64357,0.66304,0.005143,0.001626,0.659852,0.666228,0.44688,0.004775,0.00151,0.44392,0.44984,0.44688,0.004775,0.00151,0.44392,0.44984,0.75402,0.005418,0.001713,0.750662,0.757378,0.0,0.0,0.0,0.0,0.0,
neighbor_availability_x_origin_delay,B2,10,neighbor_availability_x_origin_delay,,180.0,0.82,0.82,0.2,1.1,3,5,3,0.9,0.15,1.0,93.3561,0.949009,0.300103,92.767898,93.944302,225.3651,0.103624,0.032769,225.300873,225.429327,0.63801,0.005197,0.001643,0.634789,0.641231,0.44688,0.004775,0.00151,0.44392,0.44984,0.21969,0.003705,0.001172,0.217394,0.221986,0.61355,0.009986,0.003158,0.607361,0.619739,0.49159,0.005261,0.001664,0.488329,0.494851,2.3565
neighbor_availability_x_origin_delay,B0,10,neighbor_availability_x_origin_delay,,180.0,0.82,0.82,0.25,1.1,3,5,3,0.9,0.15,1.0,100.7724,0.807775,0.255441,100.271736,101.273064,201.4237,0.094715,0.029951,201.364995,201.482405,0.55303,0.004551,0.001439,0.550209,0.555851,0.44697,0.004551,0.001439,0.444149,0.449791,0.0,0.0,0.0,0.0,0.0,0.0,0.0,0.0,0.0,0.0,0.0,0.0,0.0,0.0,0.0,
neighbor_availability_x_origin_delay,B1,10,neighbor_availability_x_origin_delay,,180.0,0.82,0.82,0.25,1.1,3,5,3,0.9,0.15,1.0,91.9884,0.966122,0.305515,91.389591,92.587209,228.2539,0.130858,0.041381,228.172793,228.335007,0.68615,0.004806,0.00152,0.683171,0.689129,0.44697,0.004551,0.001439,0.444149,0.449791,0.44697,0.004551,0.001439,0.444149,0.449791,0.70216,0.004948,0.001565,0.699093,0.705227,0.0,0.0,0.0,0.0,0.0,
neighbor_availability_x_origin_delay,B2,10,neighbor_availability_x_origin_delay,,180.0,0.82,0.82,0.25,1.1,3,5,3,0.9,0.15,1.0,90.4495,0.942202,0.297951,89.865517,91.033483,227.4214,0.12183,0.038526,227.345889,227.496911,0.68263,0.004715,0.001491,0.679708,0.685552,0.44697,0.004551,0.001439,0.444149,0.449791,0.37189,0.004968,0.001571,0.368811,0.374969,0.65147,0.006252,0.001977,0.647595,0.655345,0.83201,0.006202,0.001961,0.828166,0.835854,1.5389
neighbor_availability_x_origin_delay,B0,10,neighbor_availability_x_origin_delay,,180.0,0.82,0.82,0.3,1.1,3,5,3,0.9,0.15,1.0,101.1133,0.561338,0.177511,100.765379,101.461221,201.3607,0.175686,0.055557,201.251809,201.469591,0.55108,0.003227,0.00102,0.54908,0.55308,0.44892,0.003227,0.00102,0.44692,0.45092,0.0,0.0,0.0,0.0,0.0,0.0,0.0,0.0,0.0,0.0,0.0,0.0,0.0,0.0,0.0,
neighbor_availability_x_origin_delay,B1,10,neighbor_availability_x_origin_delay,,180.0,0.82,0.82,0.3,1.1,3,5,3,0.9,0.15,1.0,89.2768,0.739665,0.233903,88.818351,89.735249,228.0627,0.170312,0.053857,227.95714,228.16826,0.70362,0.004216,0.001333,0.701007,0.706233,0.44892,0.003227,0.00102,0.44692,0.45092,0.44892,0.003227,0.00102,0.44692,0.45092,0.66022,0.008867,0.002804,0.654724,0.665716,0.0,0.0,0.0,0.0,0.0,
neighbor_availability_x_origin_delay,B2,10,neighbor_availability_x_origin_delay,,180.0,0.82,0.82,0.3,1.1,3,5,3,0.9,0.15,1.0,87.8478,0.688997,0.21788,87.420755,88.274845,227.2346,0.179871,0.05688,227.123115,227.346085,0.70045,0.004186,0.001324,0.697856,0.703044,0.44892,0.003227,0.00102,0.44692,0.45092,0.37977,0.002251,0.000712,0.378375,0.381165,0.60672,0.009485,0.002999,0.600841,0.612599,0.84598,0.004339,0.001372,0.843291,0.848669,1.429
neighbor_availability_x_origin_delay,B0,10,neighbor_availability_x_origin_delay,,180.0,0.82,0.82,0.35,1.1,3,5,3,0.9,0.15,1.0,100.7939,1.075789,0.340194,100.127119,101.460681,201.3967,0.126323,0.039947,201.318404,201.474996,0.55298,0.00611,0.001932,0.549193,0.556767,0.44702,0.00611,0.001932,0.443233,0.450807,0.0,0.0,0.0,0.0,0.0,0.0,0.0,0.0,0.0,0.0,0.0,0.0,0.0,0.0,0.0,
neighbor_availability_x_origin_delay,B1,10,neighbor_availability_x_origin_delay,,180.0,0.82,0.82,0.35,1.1,3,5,3,0.9,0.15,1.0,85.9476,1.023345,0.32361,85.313324,86.581876,227.7851,0.169339,0.05355,227.680143,227.890057,0.724,0.004732,0.001496,0.721067,0.726933,0.44702,0.00611,0.001932,0.443233,0.450807,0.44702,0.00611,0.001932,0.443233,0.450807,0.61742,0.002869,0.000907,0.615642,0.619198,0.0,0.0,0.0,0.0,0.0,
neighbor_availability_x_origin_delay,B2,10,neighbor_availability_x_origin_delay,,180.0,0.82,0.82,0.35,1.1,3,5,3,0.9,0.15,1.0,84.694,1.015292,0.321064,84.064715,85.323285,227.0266,0.146254,0.04625,226.935951,227.117249,0.72102,0.004815,0.001522,0.718036,0.724004,0.44702,0.00611,0.001932,0.443233,0.450807,0.38523,0.005604,0.001772,0.381757,0.388703,0.56374,0.003865,0.001222,0.561344,0.566136,0.86179,0.003941,0.001246,0.859347,0.864233,1.2536
neighbor_availability_x_origin_delay,B0,10,neighbor_availability_x_origin_delay,,180.0,0.82,0.82,0.45,1.1,3,5,3,0.9,0.15,1.0,101.2061,1.047151,0.331138,100.557069,101.855131,201.367,0.090651,0.028666,201.310814,201.423186,0.55062,0.006112,0.001933,0.546832,0.554408,0.44938,0.006112,0.001933,0.445592,0.453168,0.0,0.0,0.0,0.0,0.0,0.0,0.0,0.0,0.0,0.0,0.0,0.0,0.0,0.0,0.0,
neighbor_availability_x_origin_delay,B1,10,neighbor_availability_x_origin_delay,,180.0,0.82,0.82,0.45,1.1,3,5,3,0.9,0.15,1.0,80.8767,0.701626,0.221874,80.441828,81.311572,227.4478,0.074037,0.023413,227.401911,227.493689,0.75632,0.003219,0.001018,0.754325,0.758315,0.44938,0.006112,0.001933,0.445592,0.453168,0.44938,0.006112,0.001933,0.445592,0.453168,0.54229,0.005677,0.001795,0.538771,0.545809,0.0,0.0,0.0,0.0,0.0,
neighbor_availability_x_origin_delay,B2,10,neighbor_availability_x_origin_delay,,180.0,0.82,0.82,0.45,1.1,3,5,3,0.9,0.15,1.0,79.8387,0.686064,0.216953,79.413473,80.263927,226.5837,0.149092,0.047147,226.491292,226.676108,0.75273,0.003223,0.001019,0.750732,0.754728,0.44938,0.006112,0.001933,0.445592,0.453168,0.3918,0.005343,0.00169,0.388488,0.395112,0.48417,0.006839,0.002163,0.479931,0.488409,0.87187,0.003482,0.001101,0.869712,0.874028,1.038
neighbor_availability_x_origin_delay,B0,10,neighbor_availability_x_origin_delay,,180.0,0.82,0.82,0.55,1.1,3,5,3,0.9,0.15,1.0,100.9539,0.944367,0.298635,100.368575,101.539225,201.3247,0.185558,0.058679,201.20969,201.43971,0.552,0.005392,0.001705,0.548658,0.555342,0.448,0.005392,0.001705,0.444658,0.451342,0.0,0.0,0.0,0.0,0.0,0.0,0.0,0.0,0.0,0.0,0.0,0.0,0.0,0.0,0.0,
neighbor_availability_x_origin_delay,B1,10,neighbor_availability_x_origin_delay,,180.0,0.82,0.82,0.55,1.1,3,5,3,0.9,0.15,1.0,77.0033,0.810599,0.256334,76.500886,77.505714,226.9639,0.138536,0.043809,226.878035,227.049765,0.78009,0.00457,0.001445,0.777258,0.782922,0.448,0.005392,0.001705,0.444658,0.451342,0.448,0.005392,0.001705,0.444658,0.451342,0.49091,0.010529,0.00333,0.484384,0.497436,0.0,0.0,0.0,0.0,0.0,
neighbor_availability_x_origin_delay,B2,10,neighbor_availability_x_origin_delay,,180.0,0.82,0.82,0.55,1.1,3,5,3,0.9,0.15,1.0,76.2112,0.865753,0.273775,75.674601,76.747799,226.0849,0.174531,0.055192,225.976724,226.193076,0.77554,0.005137,0.001624,0.772356,0.778724,0.448,0.005392,0.001705,0.444658,0.451342,0.39371,0.006313,0.001996,0.389797,0.397623,0.43226,0.011658,0.003687,0.425034,0.439486,0.87879,0.007359,0.002327,0.874229,0.883351,0.7921
neighbor_availability_x_origin_delay,B0,10,neighbor_availability_x_origin_delay,,180.0,0.82,0.82,0.65,1.1,3,5,3,0.9,0.15,1.0,100.7578,0.643827,0.203596,100.358752,101.156848,201.4002,0.152433,0.048204,201.305721,201.494679,0.55304,0.003666,0.001159,0.550768,0.555312,0.44696,0.003666,0.001159,0.444688,0.449232,0.0,0.0,0.0,0.0,0.0,0.0,0.0,0.0,0.0,0.0,0.0,0.0,0.0,0.0,0.0,
neighbor_availability_x_origin_delay,B1,10,neighbor_availability_x_origin_delay,,180.0,0.82,0.82,0.65,1.1,3,5,3,0.9,0.15,1.0,72.8072,0.777595,0.245897,72.325242,73.289158,226.608,0.157023,0.049655,226.510676,226.705324,0.80595,0.004177,0.001321,0.803361,0.808539,0.44696,0.003666,0.001159,0.444688,0.449232,0.44696,0.003666,0.001159,0.444688,0.449232,0.43414,0.00771,0.002438,0.429361,0.438919,0.0,0.0,0.0,0.0,0.0,
neighbor_availability_x_origin_delay,B2,10,neighbor_availability_x_origin_delay,,180.0,0.82,0.82,0.65,1.1,3,5,3,0.9,0.15,1.0,72.2357,0.733311,0.231893,71.781189,72.690211,225.7036,0.156502,0.04949,225.606599,225.800601,0.80091,0.004152,0.001313,0.798336,0.803484,0.44696,0.003666,0.001159,0.444688,0.449232,0.39775,0.00389,0.00123,0.395339,0.400161,0.37681,0.006672,0.00211,0.372675,0.380945,0.8899,0.005318,0.001682,0.886604,0.893196,0.5715
neighbor_availability_x_origin_delay,B0,10,neighbor_availability_x_origin_delay,,180.0,0.82,0.82,0.82,1.1,3,5,3,0.9,0.15,1.0,101.171,0.688932,0.217859,100.743996,101.598004,201.3548,0.134441,0.042514,201.271473,201.438127,0.5508,0.004035,0.001276,0.548299,0.553301,0.4492,0.004035,0.001276,0.446699,0.451701,0.0,0.0,0.0,0.0,0.0,0.0,0.0,0.0,0.0,0.0,0.0,0.0,0.0,0.0,0.0,
neighbor_availability_x_origin_delay,B1,10,neighbor_availability_x_origin_delay,,180.0,0.82,0.82,0.82,1.1,3,5,3,0.9,0.15,1.0,67.8368,0.716329,0.226523,67.392815,68.280785,226.0588,0.175084,0.055366,225.950282,226.167318,0.83775,0.003906,0.001235,0.835329,0.840171,0.4492,0.004035,0.001276,0.446699,0.451701,0.4492,0.004035,0.001276,0.446699,0.451701,0.3612,0.007827,0.002475,0.356349,0.366051,0.0,0.0,0.0,0.0,0.0,
neighbor_availability_x_origin_delay,B2,10,neighbor_availability_x_origin_delay,,180.0,0.82,0.82,0.82,1.1,3,5,3,0.9,0.15,1.0,67.5017,0.610872,0.193175,67.123077,67.880323,225.2125,0.160271,0.050682,225.113163,225.311837,0.83301,0.003411,0.001079,0.830896,0.835124,0.4492,0.004035,0.001276,0.446699,0.451701,0.41015,0.003278,0.001037,0.408118,0.412182,0.31195,0.006407,0.002026,0.307979,0.315921,0.91309,0.003848,0.001217,0.910705,0.915475,0.3351
neighbor_availability_x_origin_delay,B0,10,neighbor_availability_x_origin_delay,,240.0,0.82,0.82,0.2,1.1,3,5,3,0.9,0.15,1.0,128.2415,1.17004,0.369999,127.516302,128.966698,261.4555,0.145526,0.046019,261.365302,261.545698,0.55028,0.004954,0.001566,0.54721,0.55335,0.44972,0.004954,0.001566,0.44665,0.45279,0.0,0.0,0.0,0.0,0.0,0.0,0.0,0.0,0.0,0.0,0.0,0.0,0.0,0.0,0.0,
neighbor_availability_x_origin_delay,B1,10,neighbor_availability_x_origin_delay,,240.0,0.82,0.82,0.2,1.1,3,5,3,0.9,0.15,1.0,116.2972,1.091494,0.345161,115.620685,116.973715,288.5463,0.101457,0.032084,288.483416,288.609184,0.66181,0.00419,0.001325,0.659213,0.664407,0.44972,0.004954,0.001566,0.44665,0.45279,0.44972,0.004954,0.001566,0.44665,0.45279,0.75202,0.006405,0.002025,0.74805,0.75599,0.0,0.0,0.0,0.0,0.0,
neighbor_availability_x_origin_delay,B2,10,neighbor_availability_x_origin_delay,,240.0,0.82,0.82,0.2,1.1,3,5,3,0.9,0.15,1.0,114.6758,1.116557,0.353086,113.98375,115.36785,287.7183,0.121618,0.038459,287.64292,287.79368,0.66001,0.004333,0.00137,0.657324,0.662696,0.44972,0.004954,0.001566,0.44665,0.45279,0.37767,0.004343,0.001373,0.374978,0.380362,0.70946,0.007839,0.002479,0.704601,0.714319,0.83978,0.003533,0.001117,0.83759,0.84197,1.6214
neighbor_availability_x_origin_delay,B0,10,neighbor_availability_x_origin_delay,,240.0,0.82,0.82,0.25,1.1,3,5,3,0.9,0.15,1.0,128.4766,0.894199,0.282771,127.922369,129.030831,261.3746,0.163643,0.051748,261.273173,261.476027,0.54926,0.00384,0.001214,0.54688,0.55164,0.45074,0.00384,0.001214,0.44836,0.45312,0.0,0.0,0.0,0.0,0.0,0.0,0.0,0.0,0.0,0.0,0.0,0.0,0.0,0.0,0.0,
neighbor_availability_x_origin_delay,B1,10,neighbor_availability_x_origin_delay,,240.0,0.82,0.82,0.25,1.1,3,5,3,0.9,0.15,1.0,111.4984,1.06341,0.33628,110.839292,112.157508,288.2018,0.138508,0.0438,288.115952,288.287648,0.6838,0.004295,0.001358,0.681138,0.686462,0.45074,0.00384,0.001214,0.44836,0.45312,0.45074,0.00384,0.001214,0.44836,0.45312,0.70152,0.007101,0.002246,0.697119,0.705921,0.0,0.0,0.0,0.0,0.0,
neighbor_availability_x_origin_delay,B2,10,neighbor_availability_x_origin_delay,,240.0,0.82,0.82,0.25,1.1,3,5,3,0.9,0.15,1.0,110.0148,1.065659,0.336991,109.354298,110.675302,287.3608,0.153047,0.048398,287.26594,287.45566,0.68142,0.004397,0.001391,0.678694,0.684146,0.45074,0.00384,0.001214,0.44836,0.45312,0.37905,0.004684,0.001481,0.376147,0.381953,0.65135,0.007922,0.002505,0.64644,0.65626,0.84094,0.005979,0.001891,0.837234,0.844646,1.4836
neighbor_availability_x_origin_delay,B0,10,neighbor_availability_x_origin_delay,,240.0,0.82,0.82,0.3,1.1,3,5,3,0.9,0.15,1.0,128.0642,1.107605,0.350255,127.377699,128.750701,261.3984,0.1045,0.033046,261.33363,261.46317,0.55103,0.004824,0.001525,0.54804,0.55402,0.44897,0.004824,0.001525,0.44598,0.45196,0.0,0.0,0.0,0.0,0.0,0.0,0.0,0.0,0.0,0.0,0.0,0.0,0.0,0.0,0.0,
neighbor_availability_x_origin_delay,B1,10,neighbor_availability_x_origin_delay,,240.0,0.82,0.82,0.3,1.1,3,5,3,0.9,0.15,1.0,107.1161,1.401362,0.44315,106.247527,107.984673,288.0464,0.112682,0.035633,287.976559,288.116241,0.70339,0.005771,0.001825,0.699813,0.706967,0.44897,0.004824,0.001525,0.44598,0.45196,0.44897,0.004824,0.001525,0.44598,0.45196,0.66063,0.009207,0.002912,0.654923,0.666337,0.0,0.0,0.0,0.0,0.0,
neighbor_availability_x_origin_delay,B2,10,neighbor_availability_x_origin_delay,,240.0,0.82,0.82,0.3,1.1,3,5,3,0.9,0.15,1.0,105.8607,1.30116,0.411463,105.054233,106.667167,287.2806,0.101074,0.031963,287.217953,287.343247,0.70115,0.005534,0.00175,0.69772,0.70458,0.44897,0.004824,0.001525,0.44598,0.45196,0.38653,0.003502,0.001107,0.384359,0.388701,0.61162,0.009197,0.002908,0.60592,0.61732,0.86095,0.005028,0.00159,0.857834,0.864066,1.2554
neighbor_availability_x_origin_delay,B0,10,neighbor_availability_x_origin_delay,,240.0,0.82,0.82,0.35,1.1,3,5,3,0.9,0.15,1.0,127.9724,0.90158,0.285104,127.413595,128.531205,261.3804,0.116864,0.036956,261.307967,261.452833,0.55132,0.003871,0.001224,0.548921,0.553719,0.44868,0.003871,0.001224,0.446281,0.451079,0.0,0.0,0.0,0.0,0.0,0.0,0.0,0.0,0.0,0.0,0.0,0.0,0.0,0.0,0.0,
neighbor_availability_x_origin_delay,B1,10,neighbor_availability_x_origin_delay,,240.0,0.82,0.82,0.35,1.1,3,5,3,0.9,0.15,1.0,102.6691,0.928081,0.293485,102.09387,103.24433,287.8279,0.069966,0.022125,287.784535,287.871265,0.72344,0.003792,0.001199,0.721089,0.725791,0.44868,0.003871,0.001224,0.446281,0.451079,0.44868,0.003871,0.001224,0.446281,0.451079,0.6164,0.007233,0.002287,0.611917,0.620883,0.0,0.0,0.0,0.0,0.0,
neighbor_availability_x_origin_delay,B2,10,neighbor_availability_x_origin_delay,,240.0,0.82,0.82,0.35,1.1,3,5,3,0.9,0.15,1.0,101.5225,0.886647,0.280382,100.97295,102.07205,287.1127,0.121392,0.038388,287.03746,287.18794,0.7213,0.003754,0.001187,0.718974,0.723626,0.44868,0.003871,0.001224,0.446281,0.451079,0.39092,0.004394,0.001389,0.388197,0.393643,0.56519,0.006471,0.002046,0.561179,0.569201,0.87125,0.004781,0.001512,0.868287,0.874213,1.1466
neighbor_availability_x_origin_delay,B0,10,neighbor_availability_x_origin_delay,,240.0,0.82,0.82,0.45,1.1,3,5,3,0.9,0.15,1.0,127.7554,1.435547,0.45396,126.865639,128.645161,261.3437,0.08328,0.026335,261.292082,261.395318,0.55226,0.006131,0.001939,0.54846,0.55606,0.44774,0.006131,0.001939,0.44394,0.45154,0.0,0.0,0.0,0.0,0.0,0.0,0.0,0.0,0.0,0.0,0.0,0.0,0.0,0.0,0.0,
neighbor_availability_x_origin_delay,B1,10,neighbor_availability_x_origin_delay,,240.0,0.82,0.82,0.45,1.1,3,5,3,0.9,0.15,1.0,95.2868,1.545408,0.488701,94.328946,96.244654,287.3418,0.160258,0.050678,287.242471,287.441129,0.75683,0.005984,0.001892,0.753121,0.760539,0.44774,0.006131,0.001939,0.44394,0.45154,0.44774,0.006131,0.001939,0.44394,0.45154,0.54306,0.007972,0.002521,0.538119,0.548001,0.0,0.0,0.0,0.0,0.0,
neighbor_availability_x_origin_delay,B2,10,neighbor_availability_x_origin_delay,,240.0,0.82,0.82,0.45,1.1,3,5,3,0.9,0.15,1.0,94.4504,1.512513,0.478299,93.512935,95.387865,286.584,0.13051,0.041271,286.503109,286.664891,0.75381,0.006032,0.001908,0.750071,0.757549,0.44774,0.006131,0.001939,0.44394,0.45154,0.39414,0.005477,0.001732,0.390745,0.397535,0.4886,0.008577,0.002712,0.483284,0.493916,0.8803,0.004079,0.00129,0.877772,0.882828,0.8364
neighbor_availability_x_origin_delay,B0,10,neighbor_availability_x_origin_delay,,240.0,0.82,0.82,0.55,1.1,3,5,3,0.9,0.15,1.0,128.2495,0.89489,0.282989,127.694841,128.804159,261.4046,0.100551,0.031797,261.342278,261.466922,0.55019,0.00385,0.001217,0.547804,0.552576,0.44981,0.00385,0.001217,0.447424,0.452196,0.0,0.0,0.0,0.0,0.0,0.0,0.0,0.0,0.0,0.0,0.0,0.0,0.0,0.0,0.0,
neighbor_availability_x_origin_delay,B1,10,neighbor_availability_x_origin_delay,,240.0,0.82,0.82,0.55,1.1,3,5,3,0.9,0.15,1.0,90.1033,0.755731,0.238983,89.634893,90.571707,287.0657,0.157045,0.049662,286.968363,287.163037,0.78083,0.003066,0.000969,0.77893,0.78273,0.44981,0.00385,0.001217,0.447424,0.452196,0.44981,0.00385,0.001217,0.447424,0.452196,0.48726,0.006336,0.002004,0.483333,0.491187,0.0,0.0,0.0,0.0,0.0,
neighbor_availability_x_origin_delay,B2,10,neighbor_availability_x_origin_delay,,240.0,0.82,0.82,0.55,1.1,3,5,3,0.9,0.15,1.0,89.4743,0.768089,0.242891,88.998234,89.950366,286.2754,0.145984,0.046164,286.184918,286.365882,0.77774,0.003216,0.001017,0.775747,0.779733,0.44981,0.00385,0.001217,0.447424,0.452196,0.40307,0.004554,0.00144,0.400247,0.405893,0.43548,0.005674,0.001794,0.431963,0.438997,0.89609,0.004345,0.001374,0.893397,0.898783,0.629
neighbor_availability_x_origin_delay,B0,10,neighbor_availability_x_origin_delay,,240.0,0.82,0.82,0.65,1.1,3,5,3,0.9,0.15,1.0,127.9803,0.950171,0.30047,127.391378,128.569222,261.3852,0.169333,0.053548,261.280247,261.490153,0.55128,0.003975,0.001257,0.548817,0.553743,0.44872,0.003975,0.001257,0.446257,0.451183,0.0,0.0,0.0,0.0,0.0,0.0,0.0,0.0,0.0,0.0,0.0,0.0,0.0,0.0,0.0,
neighbor_availability_x_origin_delay,B1,10,neighbor_availability_x_origin_delay,,240.0,0.82,0.82,0.65,1.1,3,5,3,0.9,0.15,1.0,84.7106,0.778665,0.246236,84.227978,85.193222,286.6472,0.147983,0.046796,286.555479,286.738921,0.80507,0.003265,0.001033,0.803046,0.807094,0.44872,0.003975,0.001257,0.446257,0.451183,0.44872,0.003975,0.001257,0.446257,0.451183,0.43444,0.007299,0.002308,0.429916,0.438964,0.0,0.0,0.0,0.0,0.0,
neighbor_availability_x_origin_delay,B2,10,neighbor_availability_x_origin_delay,,240.0,0.82,0.82,0.65,1.1,3,5,3,0.9,0.15,1.0,84.3526,0.807784,0.255444,83.85193,84.85327,285.9021,0.127679,0.040376,285.822964,285.981236,0.80158,0.003449,0.001091,0.799442,0.803718,0.44872,0.003975,0.001257,0.446257,0.451183,0.40851,0.003578,0.001132,0.406292,0.410728,0.3873,0.008479,0.002681,0.382045,0.392555,0.9104,0.002424,0.000767,0.908898,0.911902,0.358
neighbor_availability_x_origin_delay,B0,10,neighbor_availability_x_origin_delay,,240.0,0.82,0.82,0.82,1.1,3,5,3,0.9,0.15,1.0,127.2157,1.388841,0.43919,126.354887,128.076513,261.4234,0.144312,0.045635,261.333955,261.512845,0.55467,0.005916,0.001871,0.551003,0.558337,0.44533,0.005916,0.001871,0.441663,0.448997,0.0,0.0,0.0,0.0,0.0,0.0,0.0,0.0,0.0,0.0,0.0,0.0,0.0,0.0,0.0,
neighbor_availability_x_origin_delay,B1,10,neighbor_availability_x_origin_delay,,240.0,0.82,0.82,0.82,1.1,3,5,3,0.9,0.15,1.0,77.6185,0.939147,0.296984,77.03641,78.20059,285.9764,0.199594,0.063117,285.852691,286.100109,0.83679,0.003553,0.001124,0.834588,0.838992,0.44533,0.005916,0.001871,0.441663,0.448997,0.44533,0.005916,0.001871,0.441663,0.448997,0.36651,0.007024,0.002221,0.362156,0.370864,0.0,0.0,0.0,0.0,0.0,
neighbor_availability_x_origin_delay,B2,10,neighbor_availability_x_origin_delay,,240.0,0.82,0.82,0.82,1.1,3,5,3,0.9,0.15,1.0,77.5566,0.902253,0.285317,76.997378,78.115822,285.4913,0.204062,0.06453,285.364821,285.617779,0.83424,0.003303,0.001044,0.832193,0.836287,0.44533,0.005916,0.001871,0.441663,0.448997,0.42308,0.005719,0.001809,0.419535,0.426625,0.33919,0.007767,0.002456,0.334376,0.344004,0.95005,0.003317,0.001049,0.947994,0.952106,0.0619
neighbor_availability_x_origin_delay,B0,10,neighbor_availability_x_origin_delay,,320.0,0.82,0.82,0.2,1.1,3,5,3,0.9,0.15,1.0,163.2374,1.986768,0.628271,162.005989,164.468811,341.2734,0.091898,0.029061,341.216441,341.330359,0.55334,0.006321,0.001999,0.549422,0.557258,0.44666,0.006321,0.001999,0.442742,0.450578,0.0,0.0,0.0,0.0,0.0,0.0,0.0,0.0,0.0,0.0,0.0,0.0,0.0,0.0,0.0,
neighbor_availability_x_origin_delay,B1,10,neighbor_availability_x_origin_delay,,320.0,0.82,0.82,0.2,1.1,3,5,3,0.9,0.15,1.0,142.2787,1.848388,0.584512,141.133057,143.424343,368.3775,0.109524,0.034635,368.309616,368.445384,0.66489,0.005445,0.001722,0.661515,0.668265,0.44666,0.006321,0.001999,0.442742,0.450578,0.44666,0.006321,0.001999,0.442742,0.450578,0.75027,0.00776,0.002454,0.74546,0.75508,0.0,0.0,0.0,0.0,0.0,
neighbor_availability_x_origin_delay,B2,10,neighbor_availability_x_origin_delay,,320.0,0.82,0.82,0.2,1.1,3,5,3,0.9,0.15,1.0,140.7796,1.855193,0.586664,139.629739,141.929461,367.6431,0.073279,0.023173,367.597681,367.688519,0.6634,0.005559,0.001758,0.659954,0.666846,0.44666,0.006321,0.001999,0.442742,0.450578,0.37715,0.006698,0.002118,0.372998,0.381302,0.7082,0.008391,0.002654,0.702999,0.713401,0.84435,0.006335,0.002003,0.840423,0.848277,1.4991
neighbor_availability_x_origin_delay,B0,10,neighbor_availability_x_origin_delay,,320.0,0.82,0.82,0.25,1.1,3,5,3,0.9,0.15,1.0,163.48,1.182161,0.373832,162.747289,164.212711,341.3875,0.08515,0.026927,341.334724,341.440276,0.55261,0.003746,0.001184,0.550288,0.554932,0.44739,0.003746,0.001184,0.445068,0.449712,0.0,0.0,0.0,0.0,0.0,0.0,0.0,0.0,0.0,0.0,0.0,0.0,0.0,0.0,0.0,
neighbor_availability_x_origin_delay,B1,10,neighbor_availability_x_origin_delay,,320.0,0.82,0.82,0.25,1.1,3,5,3,0.9,0.15,1.0,136.2779,1.642246,0.519324,135.260025,137.295775,368.2117,0.147049,0.046501,368.120558,368.302842,0.68504,0.004998,0.00158,0.681942,0.688138,0.44739,0.003746,0.001184,0.445068,0.449712,0.44739,0.003746,0.001184,0.445068,0.449712,0.70397,0.006574,0.002079,0.699896,0.708044,0.0,0.0,0.0,0.0,0.0,
neighbor_availability_x_origin_delay,B2,10,neighbor_availability_x_origin_delay,,320.0,0.82,0.82,0.25,1.1,3,5,3,0.9,0.15,1.0,134.9391,1.601394,0.506405,133.946546,135.931654,367.5325,0.123535,0.039065,367.455932,367.609068,0.68363,0.00498,0.001575,0.680543,0.686717,0.44739,0.003746,0.001184,0.445068,0.449712,0.38447,0.003861,0.001221,0.382077,0.386863,0.6592,0.006648,0.002102,0.65508,0.66332,0.85937,0.005676,0.001795,0.855852,0.862888,1.3388
neighbor_availability_x_origin_delay,B0,10,neighbor_availability_x_origin_delay,,320.0,0.82,0.82,0.3,1.1,3,5,3,0.9,0.15,1.0,164.1827,1.059167,0.334938,163.526222,164.839178,341.4274,0.14165,0.044794,341.339604,341.515196,0.5504,0.003314,0.001048,0.548346,0.552454,0.4496,0.003314,0.001048,0.447546,0.451654,0.0,0.0,0.0,0.0,0.0,0.0,0.0,0.0,0.0,0.0,0.0,0.0,0.0,0.0,0.0,
neighbor_availability_x_origin_delay,B1,10,neighbor_availability_x_origin_delay,,320.0,0.82,0.82,0.3,1.1,3,5,3,0.9,0.15,1.0,130.5594,0.714697,0.226007,130.116426,131.002374,368.1062,0.124416,0.039344,368.029086,368.183314,0.70444,0.002026,0.000641,0.703184,0.705696,0.4496,0.003314,0.001048,0.447546,0.451654,0.4496,0.003314,0.001048,0.447546,0.451654,0.6574,0.004422,0.001398,0.654659,0.660141,0.0,0.0,0.0,0.0,0.0,
neighbor_availability_x_origin_delay,B2,10,neighbor_availability_x_origin_delay,,320.0,0.82,0.82,0.3,1.1,3,5,3,0.9,0.15,1.0,129.4473,0.743066,0.234978,128.986743,129.907857,367.3574,0.111771,0.035345,367.288124,367.426676,0.70274,0.002076,0.000656,0.701453,0.704027,0.4496,0.003314,0.001048,0.447546,0.451654,0.39167,0.003541,0.00112,0.389475,0.393865,0.61107,0.004513,0.001427,0.608273,0.613867,0.87115,0.003592,0.001136,0.868923,0.873377,1.1121
neighbor_availability_x_origin_delay,B0,10,neighbor_availability_x_origin_delay,,320.0,0.82,0.82,0.35,1.1,3,5,3,0.9,0.15,1.0,163.9122,1.597821,0.505275,162.92186,164.90254,341.4269,0.112865,0.035691,341.356945,341.496855,0.55127,0.00507,0.001603,0.548127,0.554413,0.44873,0.00507,0.001603,0.445587,0.451873,0.0,0.0,0.0,0.0,0.0,0.0,0.0,0.0,0.0,0.0,0.0,0.0,0.0,0.0,0.0,
neighbor_availability_x_origin_delay,B1,10,neighbor_availability_x_origin_delay,,320.0,0.82,0.82,0.35,1.1,3,5,3,0.9,0.15,1.0,125.1797,1.320162,0.417472,124.361455,125.997945,367.8542,0.126371,0.039962,367.775875,367.932525,0.72226,0.003842,0.001215,0.719879,0.724641,0.44873,0.00507,0.001603,0.445587,0.451873,0.44873,0.00507,0.001603,0.445587,0.451873,0.61896,0.006588,0.002083,0.614877,0.623043,0.0,0.0,0.0,0.0,0.0,
neighbor_availability_x_origin_delay,B2,10,neighbor_availability_x_origin_delay,,320.0,0.82,0.82,0.35,1.1,3,5,3,0.9,0.15,1.0,124.1339,1.304743,0.412596,123.325212,124.942588,367.1312,0.126638,0.040047,367.052709,367.209691,0.72067,0.003753,0.001187,0.718344,0.722996,0.44873,0.00507,0.001603,0.445587,0.451873,0.39435,0.005588,0.001767,0.390886,0.397814,0.57043,0.007104,0.002246,0.566027,0.574833,0.87879,0.00294,0.00093,0.876968,0.880612,1.0458
neighbor_availability_x_origin_delay,B0,10,neighbor_availability_x_origin_delay,,320.0,0.82,0.82,0.45,1.1,3,5,3,0.9,0.15,1.0,163.4234,1.534879,0.485371,162.472072,164.374728,341.3249,0.146646,0.046373,341.234008,341.415792,0.55279,0.004903,0.001551,0.549751,0.555829,0.44721,0.004903,0.001551,0.444171,0.450249,0.0,0.0,0.0,0.0,0.0,0.0,0.0,0.0,0.0,0.0,0.0,0.0,0.0,0.0,0.0,
neighbor_availability_x_origin_delay,B1,10,neighbor_availability_x_origin_delay,,320.0,0.82,0.82,0.45,1.1,3,5,3,0.9,0.15,1.0,115.3004,0.541424,0.171213,114.964822,115.635978,367.3541,0.127966,0.040466,367.274786,367.433414,0.75494,0.001484,0.000469,0.75402,0.75586,0.44721,0.004903,0.001551,0.444171,0.450249,0.44721,0.004903,0.001551,0.444171,0.450249,0.54803,0.006011,0.001901,0.544304,0.551756,0.0,0.0,0.0,0.0,0.0,
neighbor_availability_x_origin_delay,B2,10,neighbor_availability_x_origin_delay,,320.0,0.82,0.82,0.45,1.1,3,5,3,0.9,0.15,1.0,114.5901,0.531173,0.167972,114.260875,114.919325,366.6533,0.139998,0.044271,366.566529,366.740071,0.75272,0.001463,0.000463,0.751813,0.753627,0.44721,0.004903,0.001551,0.444171,0.450249,0.39806,0.005473,0.001731,0.394668,0.401452,0.49777,0.005463,0.001728,0.494384,0.501156,0.89009,0.005877,0.001859,0.886447,0.893733,0.7103
neighbor_availability_x_origin_delay,B0,10,neighbor_availability_x_origin_delay,,320.0,0.82,0.82,0.55,1.1,3,5,3,0.9,0.15,1.0,163.5127,1.539815,0.486932,162.558313,164.467087,341.4181,0.146442,0.046309,341.327334,341.508866,0.5525,0.004885,0.001545,0.549472,0.555528,0.4475,0.004885,0.001545,0.444472,0.450528,0.0,0.0,0.0,0.0,0.0,0.0,0.0,0.0,0.0,0.0,0.0,0.0,0.0,0.0,0.0,
neighbor_availability_x_origin_delay,B1,10,neighbor_availability_x_origin_delay,,320.0,0.82,0.82,0.55,1.1,3,5,3,0.9,0.15,1.0,107.2947,0.583249,0.18444,106.933198,107.656202,367.1128,0.122175,0.038635,367.037075,367.188525,0.78166,0.001492,0.000472,0.780735,0.782585,0.4475,0.004885,0.001545,0.444472,0.450528,0.4475,0.004885,0.001545,0.444472,0.450528,0.48795,0.004755,0.001504,0.485003,0.490897,0.0,0.0,0.0,0.0,0.0,
neighbor_availability_x_origin_delay,B2,10,neighbor_availability_x_origin_delay,,320.0,0.82,0.82,0.55,1.1,3,5,3,0.9,0.15,1.0,106.9119,0.555493,0.175662,106.567602,107.256198,366.4296,0.132165,0.041794,366.347683,366.511517,0.77917,0.001522,0.000481,0.778226,0.780114,0.4475,0.004885,0.001545,0.444472,0.450528,0.40715,0.005432,0.001718,0.403783,0.410517,0.44332,0.004893,0.001547,0.440287,0.446353,0.90981,0.004708,0.001489,0.906892,0.912728,0.3828
neighbor_availability_x_origin_delay,B0,10,neighbor_availability_x_origin_delay,,320.0,0.82,0.82,0.65,1.1,3,5,3,0.9,0.15,1.0,164.7802,1.854058,0.586305,163.631043,165.929357,341.459,0.171217,0.054144,341.352878,341.565122,0.54849,0.00588,0.001859,0.544846,0.552134,0.45151,0.00588,0.001859,0.447866,0.455154,0.0,0.0,0.0,0.0,0.0,0.0,0.0,0.0,0.0,0.0,0.0,0.0,0.0,0.0,0.0,
neighbor_availability_x_origin_delay,B1,10,neighbor_availability_x_origin_delay,,320.0,0.82,0.82,0.65,1.1,3,5,3,0.9,0.15,1.0,100.7394,2.025519,0.640525,99.48397,101.99483,366.6688,0.185651,0.058708,366.553732,366.783868,0.8041,0.006066,0.001918,0.80034,0.80786,0.45151,0.00588,0.001859,0.447866,0.455154,0.45151,0.00588,0.001859,0.447866,0.455154,0.43382,0.009583,0.00303,0.427881,0.439759,0.0,0.0,0.0,0.0,0.0,
neighbor_availability_x_origin_delay,B2,10,neighbor_availability_x_origin_delay,,320.0,0.82,0.82,0.65,1.1,3,5,3,0.9,0.15,1.0,100.5541,2.042127,0.645777,99.288376,101.819824,366.1309,0.195775,0.06191,366.009557,366.252243,0.80195,0.006237,0.001972,0.798084,0.805816,0.45151,0.00588,0.001859,0.447866,0.455154,0.42185,0.004926,0.001558,0.418797,0.424903,0.39914,0.010023,0.00317,0.392927,0.405353,0.93432,0.003503,0.001108,0.932149,0.936491,0.1853
neighbor_availability_x_origin_delay,B0,10,neighbor_availability_x_origin_delay,,320.0,0.82,0.82,0.82,1.1,3,5,3,0.9,0.15,1.0,164.2197,1.568705,0.496068,163.247407,165.191993,341.3804,0.167202,0.052874,341.276767,341.484033,0.55028,0.004945,0.001564,0.547215,0.553345,0.44972,0.004945,0.001564,0.446655,0.452785,0.0,0.0,0.0,0.0,0.0,0.0,0.0,0.0,0.0,0.0,0.0,0.0,0.0,0.0,0.0,
neighbor_availability_x_origin_delay,B1,10,neighbor_availability_x_origin_delay,,320.0,0.82,0.82,0.82,1.1,3,5,3,0.9,0.15,1.0,90.8528,1.057029,0.334262,90.197646,91.507954,366.0392,0.171214,0.054143,365.93308,366.14532,0.83681,0.003068,0.00097,0.834909,0.838711,0.44972,0.004945,0.001564,0.446655,0.452785,0.44972,0.004945,0.001564,0.446655,0.452785,0.36286,0.005845,0.001848,0.359237,0.366483,0.0,0.0,0.0,0.0,0.0,
neighbor_availability_x_origin_delay,B2,10,neighbor_availability_x_origin_delay,,320.0,0.82,0.82,0.82,1.1,3,5,3,0.9,0.15,1.0,90.797,1.054872,0.33358,90.143184,91.450816,365.9644,0.168568,0.053306,365.85992,366.06888,0.83669,0.003081,0.000974,0.83478,0.8386,0.44972,0.004945,0.001564,0.446655,0.452785,0.44644,0.004715,0.001491,0.443518,0.449362,0.35847,0.005811,0.001838,0.354868,0.362072,0.99271,0.00084,0.000266,0.992189,0.993231,0.0558
