scenario,policy,trial_count,sweep_name,sweep_value,origin_delay,es_availability,local_es_availability,neighbor_es_availability,zipf_alpha,local_es_count,neighbor_group_size,k,neighbor_cache_hot_prob,neighbor_cache_cold_prob,neighbor_cache_rank_gamma,mean_response_time_mean,mean_response_time_std,mean_response_time_stderr,mean_response_time_ci95_low,mean_response_time_ci95_high,p95_response_time_mean,p95_response_time_std,p95_response_time_stderr,p95_response_time_ci95_low,p95_response_time_ci95_high,origin_free_rate_mean,origin_free_rate_std,origin_free_rate_stderr,origin_free_rate_ci95_low,origin_free_rate_ci95_high,local_failure_rate_mean,local_failure_rate_std,local_failure_rate_stderr,local_failure_rate_ci95_low,local_failure_rate_ci95_high,neighbor_attempt_rate_mean,neighbor_attempt_rate_std,neighbor_attempt_rate_stderr,neighbor_attempt_rate_ci95_low,neighbor_attempt_rate_ci95_high,neighbor_failure_rate_mean,neighbor_failure_rate_std,neighbor_failure_rate_stderr,neighbor_failure_rate_ci95_low,neighbor_failure_rate_ci95_high,b2_neighbor_choice_rate_mean,b2_neighbor_choice_rate_std,b2_neighbor_choice_rate_stderr,b2_neighbor_choice_rate_ci95_low,b2_neighbor_choice_rate_ci95_high,b2_advantage_vs_b1_mean
zipf_alpha_x_cache_gamma,B0,10,zipf_alpha_x_cache_gamma,alpha=0.6;gamma=0.3,80.0,0.82,0.82,0.55,0.6,3,5,3,0.9,0.15,0.3,56.1782,0.403066,0.127461,55.928377,56.428023,101.351,0.146572,0.04635,101.260154,101.441846,0.55162,0.005507,0.001741,0.548207,0.555033,0.44838,0.005507,0.001741,0.444967,0.451793,0.0,0.0,0.0,0.0,0.0,0.0,0.0,0.0,0.0,0.0,0.0,0.0,0.0,0.0,0.0,
zipf_alpha_x_cache_gamma,B1,10,zipf_alpha_x_cache_gamma,alpha=0.6;gamma=0.3,80.0,0.82,0.82,0.55,0.6,3,5,3,0.9,0.15,0.3,49.2595,0.290797,0.091958,49.079262,49.439738,125.0171,0.23347,0.07383,124.872394,125.161806,0.87618,0.002521,0.000797,0.874617,0.877743,0.44838,0.005507,0.001741,0.444967,0.451793,0.44838,0.005507,0.001741,0.444967,0.451793,0.27618,0.00606,0.001916,0.272424,0.279936,0.0,0.0,0.0,0.0,0.0,
zipf_alpha_x_cache_gamma,B2,10,zipf_alpha_x_cache_gamma,alpha=0.6;gamma=0.3,80.0,0.82,0.82,0.55,0.6,3,5,3,0.9,0.15,0.3,48.76,0.295301,0.093382,48.576971,48.943029,123.431,0.127772,0.040405,123.351806,123.510194,0.85608,0.002461,0.000778,0.854555,0.857605,0.44838,0.005507,0.001741,0.444967,0.451793,0.38748,0.004927,0.001558,0.384426,0.390534,0.21427,0.005371,0.001699,0.210941,0.217599,0.86417,0.004064,0.001285,0.861651,0.866689,0.4995
zipf_alpha_x_cache_gamma,B0,10,zipf_alpha_x_cache_gamma,alpha=0.6;gamma=0.6,80.0,0.82,0.82,0.55,0.6,3,5,3,0.9,0.15,0.6,55.9776,0.333845,0.105571,55.770681,56.184519,101.3393,0.100497,0.03178,101.277012,101.401588,0.55444,0.004618,0.00146,0.551578,0.557302,0.44556,0.004618,0.00146,0.442698,0.448422,0.0,0.0,0.0,0.0,0.0,0.0,0.0,0.0,0.0,0.0,0.0,0.0,0.0,0.0,0.0,
zipf_alpha_x_cache_gamma,B1,10,zipf_alpha_x_cache_gamma,alpha=0.6;gamma=0.6,80.0,0.82,0.82,0.55,0.6,3,5,3,0.9,0.15,0.6,53.6572,0.566071,0.179007,53.306346,54.008054,126.7357,0.099546,0.031479,126.674001,126.797399,0.80104,0.007018,0.002219,0.79669,0.80539,0.44556,0.004618,0.00146,0.442698,0.448422,0.44556,0.004618,0.00146,0.442698,0.448422,0.44648,0.012765,0.004037,0.438568,0.454392,0.0,0.0,0.0,0.0,0.0,
zipf_alpha_x_cache_gamma,B2,10,zipf_alpha_x_cache_gamma,alpha=0.6;gamma=0.6,80.0,0.82,0.82,0.55,0.6,3,5,3,0.9,0.15,0.6,52.3887,0.498542,0.157653,52.079701,52.697699,125.4353,0.186633,0.059018,125.319624,125.550976,0.78682,0.007433,0.002351,0.782213,0.791427,0.44556,0.004618,0.00146,0.442698,0.448422,0.36978,0.003386,0.001071,0.367682,0.371878,0.37159,0.011562,0.003656,0.364424,0.378756,0.82996,0.007253,0.002294,0.825464,0.834456,1.2685
zipf_alpha_x_cache_gamma,B0,10,zipf_alpha_x_cache_gamma,alpha=0.6;gamma=1.0,80.0,0.82,0.82,0.55,0.6,3,5,3,0.9,0.15,1.0,56.2665,0.515265,0.162941,55.947135,56.585865,101.4622,0.118765,0.037557,101.388589,101.535811,0.55041,0.006844,0.002164,0.546168,0.554652,0.44959,0.006844,0.002164,0.445348,0.453832,0.0,0.0,0.0,0.0,0.0,0.0,0.0,0.0,0.0,0.0,0.0,0.0,0.0,0.0,0.0,
zipf_alpha_x_cache_gamma,B1,10,zipf_alpha_x_cache_gamma,alpha=0.6;gamma=1.0,80.0,0.82,0.82,0.55,0.6,3,5,3,0.9,0.15,1.0,57.0657,0.569089,0.179962,56.712975,57.418425,127.4937,0.113261,0.035816,127.4235,127.5639,0.7469,0.005139,0.001625,0.743715,0.750085,0.44959,0.006844,0.002164,0.445348,0.453832,0.44959,0.006844,0.002164,0.445348,0.453832,0.56295,0.007005,0.002215,0.558608,0.567292,0.0,0.0,0.0,0.0,0.0,
zipf_alpha_x_cache_gamma,B2,10,zipf_alpha_x_cache_gamma,alpha=0.6;gamma=1.0,80.0,0.82,0.82,0.55,0.6,3,5,3,0.9,0.15,1.0,54.6817,0.494667,0.156427,54.375102,54.988298,118.5115,4.306954,1.361978,115.842022,121.180978,0.64474,0.005171,0.001635,0.641535,0.647945,0.44959,0.006844,0.002164,0.445348,0.453832,0.14554,0.003659,0.001157,0.143272,0.147808,0.35185,0.008552,0.002704,0.346549,0.357151,0.32369,0.004288,0.001356,0.321032,0.326348,2.384
zipf_alpha_x_cache_gamma,B0,10,zipf_alpha_x_cache_gamma,alpha=0.6;gamma=1.4,80.0,0.82,0.82,0.55,0.6,3,5,3,0.9,0.15,1.4,56.3547,0.311548,0.09852,56.1616,56.5478,101.3854,0.146745,0.046405,101.294447,101.476353,0.54925,0.004787,0.001514,0.546283,0.552217,0.45075,0.004787,0.001514,0.447783,0.453717,0.0,0.0,0.0,0.0,0.0,0.0,0.0,0.0,0.0,0.0,0.0,0.0,0.0,0.0,0.0,
zipf_alpha_x_cache_gamma,B1,10,zipf_alpha_x_cache_gamma,alpha=0.6;gamma=1.4,80.0,0.82,0.82,0.55,0.6,3,5,3,0.9,0.15,1.4,58.6146,0.435342,0.137667,58.344772,58.884428,127.8483,0.120299,0.038042,127.773738,127.922862,0.72193,0.004734,0.001497,0.718996,0.724864,0.45075,0.004787,0.001514,0.447783,0.453717,0.45075,0.004787,0.001514,0.447783,0.453717,0.61688,0.005101,0.001613,0.613719,0.620041,0.0,0.0,0.0,0.0,0.0,
zipf_alpha_x_cache_gamma,B2,10,zipf_alpha_x_cache_gamma,alpha=0.6;gamma=1.4,80.0,0.82,0.82,0.55,0.6,3,5,3,0.9,0.15,1.4,55.3137,0.363602,0.114981,55.088337,55.539063,103.1861,0.27455,0.08682,103.015932,103.356268,0.60549,0.00629,0.001989,0.601591,0.609389,0.45075,0.004787,0.001514,0.447783,0.453717,0.08334,0.002614,0.000827,0.08172,0.08496,0.3251,0.014974,0.004735,0.315819,0.334381,0.18494,0.006893,0.00218,0.180668,0.189212,3.3009
zipf_alpha_x_cache_gamma,B0,10,zipf_alpha_x_cache_gamma,alpha=0.6;gamma=2.0,80.0,0.82,0.82,0.55,0.6,3,5,3,0.9,0.15,2.0,55.9288,0.338382,0.107006,55.719069,56.138531,101.2589,0.14469,0.045755,101.16922,101.34858,0.55476,0.004471,0.001414,0.551989,0.557531,0.44524,0.004471,0.001414,0.442469,0.448011,0.0,0.0,0.0,0.0,0.0,0.0,0.0,0.0,0.0,0.0,0.0,0.0,0.0,0.0,0.0,
zipf_alpha_x_cache_gamma,B1,10,zipf_alpha_x_cache_gamma,alpha=0.6;gamma=2.0,80.0,0.82,0.82,0.55,0.6,3,5,3,0.9,0.15,2.0,59.0615,0.498561,0.157659,58.752489,59.370511,127.8893,0.10591,0.033492,127.823656,127.954944,0.71033,0.00548,0.001733,0.706934,0.713726,0.44524,0.004471,0.001414,0.442469,0.448011,0.44524,0.004471,0.001414,0.442469,0.448011,0.65057,0.008349,0.00264,0.645395,0.655745,0.0,0.0,0.0,0.0,0.0,
zipf_alpha_x_cache_gamma,B2,10,zipf_alpha_x_cache_gamma,alpha=0.6;gamma=2.0,80.0,0.82,0.82,0.55,0.6,3,5,3,0.9,0.15,2.0,55.1575,0.344356,0.108895,54.944066,55.370934,101.9383,0.187263,0.059218,101.822233,102.054367,0.59121,0.004412,0.001395,0.588476,0.593944,0.44524,0.004471,0.001414,0.442469,0.448011,0.05055,0.001285,0.000406,0.049753,0.051347,0.27895,0.017037,0.005387,0.268391,0.289509,0.11354,0.002612,0.000826,0.111921,0.115159,3.904
zipf_alpha_x_cache_gamma,B0,10,zipf_alpha_x_cache_gamma,alpha=0.8;gamma=0.3,80.0,0.82,0.82,0.55,0.8,3,5,3,0.9,0.15,0.3,56.0032,0.447864,0.141627,55.725611,56.280789,101.4156,0.108006,0.034155,101.348657,101.482543,0.55423,0.00594,0.001878,0.550548,0.557912,0.44577,0.00594,0.001878,0.442088,0.449452,0.0,0.0,0.0,0.0,0.0,0.0,0.0,0.0,0.0,0.0,0.0,0.0,0.0,0.0,0.0,
zipf_alpha_x_cache_gamma,B1,10,zipf_alpha_x_cache_gamma,alpha=0.8;gamma=0.3,80.0,0.82,0.82,0.55,0.8,3,5,3,0.9,0.15,0.3,49.7671,0.363654,0.114998,49.541705,49.992495,125.3115,0.155155,0.049064,125.215334,125.407666,0.86619,0.003936,0.001245,0.863751,0.868629,0.44577,0.00594,0.001878,0.442088,0.449452,0.44577,0.00594,0.001878,0.442088,0.449452,0.30022,0.009437,0.002984,0.294371,0.306069,0.0,0.0,0.0,0.0,0.0,
zipf_alpha_x_cache_gamma,B2,10,zipf_alpha_x_cache_gamma,alpha=0.8;gamma=0.3,80.0,0.82,0.82,0.55,0.8,3,5,3,0.9,0.15,0.3,49.1186,0.326116,0.103127,48.916471,49.320729,123.8475,0.189745,0.060003,123.729895,123.965105,0.84983,0.004149,0.001312,0.847258,0.852402,0.44577,0.00594,0.001878,0.442088,0.449452,0.38755,0.005907,0.001868,0.383889,0.391211,0.23733,0.010529,0.00333,0.230804,0.243856,0.86939,0.004719,0.001492,0.866465,0.872315,0.6485
zipf_alpha_x_cache_gamma,B0,10,zipf_alpha_x_cache_gamma,alpha=0.8;gamma=0.6,80.0,0.82,0.82,0.55,0.8,3,5,3,0.9,0.15,0.6,56.2851,0.347941,0.110029,56.069444,56.500756,101.3824,0.134691,0.042593,101.298918,101.465882,0.55009,0.004915,0.001554,0.547044,0.553136,0.44991,0.004915,0.001554,0.446864,0.452956,0.0,0.0,0.0,0.0,0.0,0.0,0.0,0.0,0.0,0.0,0.0,0.0,0.0,0.0,0.0,
zipf_alpha_x_cache_gamma,B1,10,zipf_alpha_x_cache_gamma,alpha=0.8;gamma=0.6,80.0,0.82,0.82,0.55,0.8,3,5,3,0.9,0.15,0.6,54.3506,0.346771,0.109659,54.135669,54.565531,126.7618,0.103895,0.032854,126.697405,126.826195,0.79229,0.00369,0.001167,0.790003,0.794577,0.44991,0.004915,0.001554,0.446864,0.452956,0.44991,0.004915,0.001554,0.446864,0.452956,0.46169,0.007489,0.002368,0.457048,0.466332,0.0,0.0,0.0,0.0,0.0,
zipf_alpha_x_cache_gamma,B2,10,zipf_alpha_x_cache_gamma,alpha=0.8;gamma=0.6,80.0,0.82,0.82,0.55,0.8,3,5,3,0.9,0.15,0.6,52.8395,0.337251,0.106648,52.630469,53.048531,123.7643,0.204245,0.064588,123.637708,123.890892,0.73765,0.004241,0.001341,0.735021,0.740279,0.44991,0.004915,0.001554,0.446864,0.452956,0.27886,0.004356,0.001377,0.27616,0.28156,0.32738,0.009627,0.003044,0.321413,0.333347,0.61982,0.007465,0.002361,0.615193,0.624447,1.5111
zipf_alpha_x_cache_gamma,B0,10,zipf_alpha_x_cache_gamma,alpha=0.8;gamma=1.0,80.0,0.82,0.82,0.55,0.8,3,5,3,0.9,0.15,1.0,56.1727,0.177472,0.056122,56.062702,56.282698,101.4274,0.091709,0.029001,101.370558,101.484242,0.55193,0.002426,0.000767,0.550426,0.553434,0.44807,0.002426,0.000767,0.446566,0.449574,0.0,0.0,0.0,0.0,0.0,0.0,0.0,0.0,0.0,0.0,0.0,0.0,0.0,0.0,0.0,
zipf_alpha_x_cache_gamma,B1,10,zipf_alpha_x_cache_gamma,alpha=0.8;gamma=1.0,80.0,0.82,0.82,0.55,0.8,3,5,3,0.9,0.15,1.0,56.7702,0.30528,0.096538,56.580985,56.959415,127.4589,0.094001,0.029726,127.400638,127.517162,0.75107,0.003801,0.001202,0.748714,0.753426,0.44807,0.002426,0.000767,0.446566,0.449574,0.44807,0.002426,0.000767,0.446566,0.449574,0.55555,0.006548,0.002071,0.551491,0.559609,0.0,0.0,0.0,0.0,0.0,
zipf_alpha_x_cache_gamma,B2,10,zipf_alpha_x_cache_gamma,alpha=0.8;gamma=1.0,80.0,0.82,0.82,0.55,0.8,3,5,3,0.9,0.15,1.0,54.1084,0.221941,0.070184,53.97084,54.24596,106.2014,0.458614,0.145026,105.917148,106.485652,0.65403,0.003971,0.001256,0.651569,0.656491,0.44807,0.002426,0.000767,0.446566,0.449574,0.14506,0.002464,0.000779,0.143533,0.146587,0.29626,0.01064,0.003365,0.289665,0.302855,0.32374,0.005786,0.00183,0.320154,0.327326,2.6618
zipf_alpha_x_cache_gamma,B0,10,zipf_alpha_x_cache_gamma,alpha=0.8;gamma=1.4,80.0,0.82,0.82,0.55,0.8,3,5,3,0.9,0.15,1.4,56.2566,0.305321,0.096551,56.06736,56.44584,101.3804,0.085274,0.026966,101.327547,101.433253,0.5507,0.004443,0.001405,0.547946,0.553454,0.4493,0.004443,0.001405,0.446546,0.452054,0.0,0.0,0.0,0.0,0.0,0.0,0.0,0.0,0.0,0.0,0.0,0.0,0.0,0.0,0.0,
zipf_alpha_x_cache_gamma,B1,10,zipf_alpha_x_cache_gamma,alpha=0.8;gamma=1.4,80.0,0.82,0.82,0.55,0.8,3,5,3,0.9,0.15,1.4,58.0214,0.305087,0.096477,57.832305,58.210495,127.7387,0.117151,0.037047,127.666089,127.811311,0.73096,0.003045,0.000963,0.729073,0.732847,0.4493,0.004443,0.001405,0.446546,0.452054,0.4493,0.004443,0.001405,0.446546,0.452054,0.59882,0.006252,0.001977,0.594945,0.602695,0.0,0.0,0.0,0.0,0.0,
zipf_alpha_x_cache_gamma,B2,10,zipf_alpha_x_cache_gamma,alpha=0.8;gamma=1.4,80.0,0.82,0.82,0.55,0.8,3,5,3,0.9,0.15,1.4,54.6669,0.292885,0.092619,54.485368,54.848432,102.8622,0.196938,0.062277,102.740136,102.984264,0.62261,0.004029,0.001274,0.620113,0.625107,0.4493,0.004443,0.001405,0.446546,0.452054,0.09732,0.002899,0.000917,0.095523,0.099117,0.26105,0.008723,0.002759,0.255643,0.266457,0.2166,0.005884,0.001861,0.212953,0.220247,3.3545
zipf_alpha_x_cache_gamma,B0,10,zipf_alpha_x_cache_gamma,alpha=0.8;gamma=2.0,80.0,0.82,0.82,0.55,0.8,3,5,3,0.9,0.15,2.0,56.1141,0.494099,0.156248,55.807854,56.420346,101.4713,0.152153,0.048115,101.376994,101.565606,0.55257,0.006539,0.002068,0.548517,0.556623,0.44743,0.006539,0.002068,0.443377,0.451483,0.0,0.0,0.0,0.0,0.0,0.0,0.0,0.0,0.0,0.0,0.0,0.0,0.0,0.0,0.0,
zipf_alpha_x_cache_gamma,B1,10,zipf_alpha_x_cache_gamma,alpha=0.8;gamma=2.0,80.0,0.82,0.82,0.55,0.8,3,5,3,0.9,0.15,2.0,58.5338,0.633052,0.200189,58.14143,58.92617,127.9684,0.148323,0.046904,127.876468,128.060332,0.72104,0.006166,0.00195,0.717218,0.724862,0.44743,0.006539,0.002068,0.443377,0.451483,0.44743,0.006539,0.002068,0.443377,0.451483,0.62343,0.007283,0.002303,0.618916,0.627944,0.0,0.0,0.0,0.0,0.0,
zipf_alpha_x_cache_gamma,B2,10,zipf_alpha_x_cache_gamma,alpha=0.8;gamma=2.0,80.0,0.82,0.82,0.55,0.8,3,5,3,0.9,0.15,2.0,54.8202,0.512703,0.162131,54.502423,55.137977,102.268,0.199517,0.063093,102.144338,102.391662,0.60798,0.007455,0.002357,0.60336,0.6126,0.44743,0.006539,0.002068,0.443377,0.451483,0.07253,0.002606,0.000824,0.070915,0.074145,0.23628,0.015484,0.004896,0.226683,0.245877,0.16216,0.006886,0.002178,0.157892,0.166428,3.7136
zipf_alpha_x_cache_gamma,B0,10,zipf_alpha_x_cache_gamma,alpha=1.0;gamma=0.3,80.0,0.82,0.82,0.55,1.0,3,5,3,0.9,0.15,0.3,56.1887,0.294117,0.093008,56.006404,56.370996,101.4241,0.115991,0.03668,101.352208,101.495992,0.55181,0.003723,0.001177,0.549502,0.554118,0.44819,0.003723,0.001177,0.445882,0.450498,0.0,0.0,0.0,0.0,0.0,0.0,0.0,0.0,0.0,0.0,0.0,0.0,0.0,0.0,0.0,
zipf_alpha_x_cache_gamma,B1,10,zipf_alpha_x_cache_gamma,alpha=1.0;gamma=0.3,80.0,0.82,0.82,0.55,1.0,3,5,3,0.9,0.15,0.3,49.727,0.227646,0.071988,49.585904,49.868096,125.213,0.157395,0.049773,125.115446,125.310554,0.86866,0.002561,0.00081,0.867072,0.870248,0.44819,0.003723,0.001177,0.445882,0.450498,0.44819,0.003723,0.001177,0.445882,0.450498,0.29308,0.006112,0.001933,0.289292,0.296868,0.0,0.0,0.0,0.0,0.0,
zipf_alpha_x_cache_gamma,B2,10,zipf_alpha_x_cache_gamma,alpha=1.0;gamma=0.3,80.0,0.82,0.82,0.55,1.0,3,5,3,0.9,0.15,0.3,49.1155,0.230618,0.072928,48.972562,49.258438,123.9389,0.091475,0.028927,123.882203,123.995597,0.85449,0.002993,0.000946,0.852635,0.856345,0.44819,0.003723,0.001177,0.445882,0.450498,0.39599,0.003885,0.001228,0.393582,0.398398,0.23566,0.00613,0.001939,0.23186,0.23946,0.88353,0.004722,0.001493,0.880604,0.886456,0.6115
zipf_alpha_x_cache_gamma,B0,10,zipf_alpha_x_cache_gamma,alpha=1.0;gamma=0.6,80.0,0.82,0.82,0.55,1.0,3,5,3,0.9,0.15,0.6,56.0293,0.307484,0.097235,55.83872,56.21988,101.3731,0.105005,0.033206,101.308017,101.438183,0.55358,0.004044,0.001279,0.551073,0.556087,0.44642,0.004044,0.001279,0.443913,0.448927,0.0,0.0,0.0,0.0,0.0,0.0,0.0,0.0,0.0,0.0,0.0,0.0,0.0,0.0,0.0,
zipf_alpha_x_cache_gamma,B1,10,zipf_alpha_x_cache_gamma,alpha=1.0;gamma=0.6,80.0,0.82,0.82,0.55,1.0,3,5,3,0.9,0.15,0.6,53.4215,0.387259,0.122462,53.181474,53.661526,126.5739,0.156132,0.049373,126.477128,126.670672,0.80537,0.004378,0.001384,0.802657,0.808083,0.44642,0.004044,0.001279,0.443913,0.448927,0.44642,0.004044,0.001279,0.443913,0.448927,0.43596,0.008441,0.002669,0.430728,0.441192,0.0,0.0,0.0,0.0,0.0,
zipf_alpha_x_cache_gamma,B2,10,zipf_alpha_x_cache_gamma,alpha=1.0;gamma=0.6,80.0,0.82,0.82,0.55,1.0,3,5,3,0.9,0.15,0.6,51.8013,0.352171,0.111366,51.583022,52.019578,122.7114,0.230521,0.072897,122.568521,122.854279,0.74818,0.005522,0.001746,0.744757,0.751603,0.44642,0.004044,0.001279,0.443913,0.448927,0.266,0.004222,0.001335,0.263383,0.268617,0.26849,0.009602,0.003037,0.262538,0.274442,0.59585,0.008149,0.002577,0.590799,0.600901,1.6202
zipf_alpha_x_cache_gamma,B0,10,zipf_alpha_x_cache_gamma,alpha=1.0;gamma=1.0,80.0,0.82,0.82,0.55,1.0,3,5,3,0.9,0.15,1.0,56.2811,0.348608,0.110239,56.065031,56.497169,101.3435,0.096783,0.030605,101.283513,101.403487,0.55021,0.004652,0.001471,0.547327,0.553093,0.44979,0.004652,0.001471,0.446907,0.452673,0.0,0.0,0.0,0.0,0.0,0.0,0.0,0.0,0.0,0.0,0.0,0.0,0.0,0.0,0.0,
zipf_alpha_x_cache_gamma,B1,10,zipf_alpha_x_cache_gamma,alpha=1.0;gamma=1.0,80.0,0.82,0.82,0.55,1.0,3,5,3,0.9,0.15,1.0,55.6931,0.30843,0.097534,55.501933,55.884267,127.1733,0.108411,0.034283,127.106106,127.240494,0.76991,0.002873,0.000908,0.76813,0.77169,0.44979,0.004652,0.001471,0.446907,0.452673,0.44979,0.004652,0.001471,0.446907,0.452673,0.51158,0.00633,0.002002,0.507657,0.515503,0.0,0.0,0.0,0.0,0.0,
zipf_alpha_x_cache_gamma,B2,10,zipf_alpha_x_cache_gamma,alpha=1.0;gamma=1.0,80.0,0.82,0.82,0.55,1.0,3,5,3,0.9,0.15,1.0,53.2649,0.325962,0.103078,53.062867,53.466933,105.3281,0.879802,0.278218,104.782793,105.873407,0.68074,0.003102,0.000981,0.678818,0.682662,0.44979,0.004652,0.001471,0.446907,0.452673,0.17198,0.003869,0.001223,0.169582,0.174378,0.24098,0.00795,0.002514,0.236053,0.245907,0.38233,0.005435,0.001719,0.378961,0.385699,2.4282
zipf_alpha_x_cache_gamma,B0,10,zipf_alpha_x_cache_gamma,alpha=1.0;gamma=1.4,80.0,0.82,0.82,0.55,1.0,3,5,3,0.9,0.15,1.4,56.2779,0.315642,0.099815,56.082263,56.473537,101.4301,0.128708,0.040701,101.350326,101.509874,0.55035,0.004223,0.001335,0.547733,0.552967,0.44965,0.004223,0.001335,0.447033,0.452267,0.0,0.0,0.0,0.0,0.0,0.0,0.0,0.0,0.0,0.0,0.0,0.0,0.0,0.0,0.0,
zipf_alpha_x_cache_gamma,B1,10,zipf_alpha_x_cache_gamma,alpha=1.0;gamma=1.4,80.0,0.82,0.82,0.55,1.0,3,5,3,0.9,0.15,1.4,56.8038,0.445974,0.141029,56.527383,57.080217,127.5177,0.187776,0.05938,127.401315,127.634085,0.75142,0.004846,0.001533,0.748416,0.754424,0.44965,0.004223,0.001335,0.447033,0.452267,0.44965,0.004223,0.001335,0.447033,0.452267,0.55279,0.007441,0.002353,0.548178,0.557402,0.0,0.0,0.0,0.0,0.0,
zipf_alpha_x_cache_gamma,B2,10,zipf_alpha_x_cache_gamma,alpha=1.0;gamma=1.4,80.0,0.82,0.82,0.55,1.0,3,5,3,0.9,0.15,1.4,53.7646,0.341804,0.108088,53.552747,53.976453,103.1255,0.381913,0.120771,102.888788,103.362212,0.65477,0.005441,0.001721,0.651398,0.658142,0.44965,0.004223,0.001335,0.447033,0.452267,0.134,0.003855,0.001219,0.131611,0.136389,0.22075,0.006994,0.002212,0.216415,0.225085,0.29802,0.008948,0.00283,0.292474,0.303566,3.0392
zipf_alpha_x_cache_gamma,B0,10,zipf_alpha_x_cache_gamma,alpha=1.0;gamma=2.0,80.0,0.82,0.82,0.55,1.0,3,5,3,0.9,0.15,2.0,56.2803,0.366395,0.115864,56.053206,56.507394,101.4213,0.194166,0.061401,101.300955,101.541645,0.55029,0.005113,0.001617,0.547121,0.553459,0.44971,0.005113,0.001617,0.446541,0.452879,0.0,0.0,0.0,0.0,0.0,0.0,0.0,0.0,0.0,0.0,0.0,0.0,0.0,0.0,0.0,
zipf_alpha_x_cache_gamma,B1,10,zipf_alpha_x_cache_gamma,alpha=1.0;gamma=2.0,80.0,0.82,0.82,0.55,1.0,3,5,3,0.9,0.15,2.0,57.4638,0.419831,0.132762,57.203586,57.724014,127.6345,0.167624,0.053007,127.530606,127.738394,0.74043,0.00496,0.001569,0.737356,0.743504,0.44971,0.005113,0.001617,0.446541,0.452879,0.44971,0.005113,0.001617,0.446541,0.452879,0.57722,0.010798,0.003415,0.570527,0.583913,0.0,0.0,0.0,0.0,0.0,
zipf_alpha_x_cache_gamma,B2,10,zipf_alpha_x_cache_gamma,alpha=1.0;gamma=2.0,80.0,0.82,0.82,0.55,1.0,3,5,3,0.9,0.15,2.0,54.1363,0.346758,0.109655,53.921377,54.351223,102.4376,0.305477,0.0966,102.248264,102.626936,0.63751,0.004897,0.001549,0.634475,0.640545,0.44971,0.005113,0.001617,0.446541,0.452879,0.11033,0.004023,0.001272,0.107836,0.112824,0.20976,0.02007,0.006347,0.19732,0.2222,0.24532,0.007537,0.002383,0.240648,0.249992,3.3275
zipf_alpha_x_cache_gamma,B0,10,zipf_alpha_x_cache_gamma,alpha=1.1;gamma=0.3,80.0,0.82,0.82,0.55,1.1,3,5,3,0.9,0.15,0.3,56.0316,0.324481,0.10261,55.830484,56.232716,101.4047,0.136668,0.043218,101.319993,101.489407,0.5536,0.004224,0.001336,0.550982,0.556218,0.4464,0.004224,0.001336,0.443782,0.449018,0.0,0.0,0.0,0.0,0.0,0.0,0.0,0.0,0.0,0.0,0.0,0.0,0.0,0.0,0.0,
zipf_alpha_x_cache_gamma,B1,10,zipf_alpha_x_cache_gamma,alpha=1.1;gamma=0.3,80.0,0.82,0.82,0.55,1.1,3,5,3,0.9,0.15,0.3,49.2817,0.354593,0.112132,49.061921,49.501479,125.0315,0.132399,0.041868,124.949438,125.113562,0.87442,0.003423,0.001082,0.872299,0.876541,0.4464,0.004224,0.001336,0.443782,0.449018,0.4464,0.004224,0.001336,0.443782,0.449018,0.28131,0.006695,0.002117,0.27716,0.28546,0.0,0.0,0.0,0.0,0.0,
zipf_alpha_x_cache_gamma,B2,10,zipf_alpha_x_cache_gamma,alpha=1.1;gamma=0.3,80.0,0.82,0.82,0.55,1.1,3,5,3,0.9,0.15,0.3,48.6731,0.323924,0.102434,48.47233,48.87387,123.6832,0.178084,0.056315,123.572823,123.793577,0.86242,0.003849,0.001217,0.860034,0.864806,0.4464,0.004224,0.001336,0.443782,0.449018,0.39895,0.002707,0.000856,0.397272,0.400628,0.22592,0.004729,0.001495,0.222989,0.228851,0.89373,0.005157,0.001631,0.890533,0.896927,0.6086
zipf_alpha_x_cache_gamma,B0,10,zipf_alpha_x_cache_gamma,alpha=1.1;gamma=0.6,80.0,0.82,0.82,0.55,1.1,3,5,3,0.9,0.15,0.6,56.2823,0.513615,0.162419,55.963958,56.600642,101.3834,0.196986,0.062293,101.261307,101.505493,0.55004,0.007313,0.002313,0.545507,0.554573,0.44996,0.007313,0.002313,0.445427,0.454493,0.0,0.0,0.0,0.0,0.0,0.0,0.0,0.0,0.0,0.0,0.0,0.0,0.0,0.0,0.0,
zipf_alpha_x_cache_gamma,B1,10,zipf_alpha_x_cache_gamma,alpha=1.1;gamma=0.6,80.0,0.82,0.82,0.55,1.1,3,5,3,0.9,0.15,0.6,52.9103,0.611632,0.193415,52.531206,53.289394,126.4383,0.167256,0.052891,126.334634,126.541966,0.81622,0.006088,0.001925,0.812446,0.819994,0.44996,0.007313,0.002313,0.445427,0.454493,0.44996,0.007313,0.002313,0.445427,0.454493,0.40837,0.009156,0.002895,0.402695,0.414045,0.0,0.0,0.0,0.0,0.0,
zipf_alpha_x_cache_gamma,B2,10,zipf_alpha_x_cache_gamma,alpha=1.1;gamma=0.6,80.0,0.82,0.82,0.55,1.1,3,5,3,0.9,0.15,0.6,51.4618,0.515302,0.162953,51.142412,51.781188,122.5196,0.271364,0.085813,122.351407,122.687793,0.76061,0.006003,0.001898,0.756889,0.764331,0.44996,0.007313,0.002313,0.445427,0.454493,0.27906,0.005285,0.001671,0.275784,0.282336,0.24538,0.007472,0.002363,0.240749,0.250011,0.6202,0.00657,0.002077,0.616128,0.624272,1.4485
zipf_alpha_x_cache_gamma,B0,10,zipf_alpha_x_cache_gamma,alpha=1.1;gamma=1.0,80.0,0.82,0.82,0.55,1.1,3,5,3,0.9,0.15,1.0,56.2803,0.366395,0.115864,56.053206,56.507394,101.4213,0.194166,0.061401,101.300955,101.541645,0.55029,0.005113,0.001617,0.547121,0.553459,0.44971,0.005113,0.001617,0.446541,0.452879,0.0,0.0,0.0,0.0,0.0,0.0,0.0,0.0,0.0,0.0,0.0,0.0,0.0,0.0,0.0,
zipf_alpha_x_cache_gamma,B1,10,zipf_alpha_x_cache_gamma,alpha=1.1;gamma=1.0,80.0,0.82,0.82,0.55,1.1,3,5,3,0.9,0.15,1.0,54.9984,0.348542,0.110219,54.782371,55.214429,127.0428,0.195251,0.061744,126.921782,127.163818,0.78152,0.004148,0.001312,0.778949,0.784091,0.44971,0.005113,0.001617,0.446541,0.452879,0.44971,0.005113,0.001617,0.446541,0.452879,0.48586,0.010107,0.003196,0.479595,0.492125,0.0,0.0,0.0,0.0,0.0,
zipf_alpha_x_cache_gamma,B2,10,zipf_alpha_x_cache_gamma,alpha=1.1;gamma=1.0,80.0,0.82,0.82,0.55,1.1,3,5,3,0.9,0.15,1.0,52.7157,0.277667,0.087806,52.5436,52.8878,107.1368,1.590743,0.503037,106.150847,108.122753,0.7013,0.003875,0.001225,0.698898,0.703702,0.44971,0.005113,0.001617,0.446541,0.452879,0.19628,0.005714,0.001807,0.192739,0.199821,0.23072,0.011544,0.003651,0.223565,0.237875,0.43643,0.00989,0.003128,0.4303,0.44256,2.2827
zipf_alpha_x_cache_gamma,B0,10,zipf_alpha_x_cache_gamma,alpha=1.1;gamma=1.4,80.0,0.82,0.82,0.55,1.1,3,5,3,0.9,0.15,1.4,56.1788,0.31515,0.099659,55.983468,56.374132,101.3659,0.093155,0.029458,101.308162,101.423638,0.55145,0.004082,0.001291,0.54892,0.55398,0.44855,0.004082,0.001291,0.44602,0.45108,0.0,0.0,0.0,0.0,0.0,0.0,0.0,0.0,0.0,0.0,0.0,0.0,0.0,0.0,0.0,
zipf_alpha_x_cache_gamma,B1,10,zipf_alpha_x_cache_gamma,alpha=1.1;gamma=1.4,80.0,0.82,0.82,0.55,1.1,3,5,3,0.9,0.15,1.4,55.9707,0.37841,0.119664,55.736159,56.205241,127.2664,0.193456,0.061176,127.146495,127.386305,0.76424,0.003937,0.001245,0.7618,0.76668,0.44855,0.004082,0.001291,0.44602,0.45108,0.44855,0.004082,0.001291,0.44602,0.45108,0.52562,0.006774,0.002142,0.521422,0.529818,0.0,0.0,0.0,0.0,0.0,
zipf_alpha_x_cache_gamma,B2,10,zipf_alpha_x_cache_gamma,alpha=1.1;gamma=1.4,80.0,0.82,0.82,0.55,1.1,3,5,3,0.9,0.15,1.4,53.1549,0.267246,0.084511,52.989259,53.320541,103.314,0.317156,0.100293,103.117425,103.510575,0.67423,0.003071,0.000971,0.672327,0.676133,0.44855,0.004082,0.001291,0.44602,0.45108,0.15511,0.002335,0.000739,0.153662,0.156558,0.20839,0.009072,0.002869,0.202767,0.214013,0.34581,0.004819,0.001524,0.342823,0.348797,2.8158
zipf_alpha_x_cache_gamma,B0,10,zipf_alpha_x_cache_gamma,alpha=1.1;gamma=2.0,80.0,0.82,0.82,0.55,1.1,3,5,3,0.9,0.15,2.0,56.3397,0.24849,0.078579,56.185684,56.493716,101.3995,0.138951,0.04394,101.313377,101.485623,0.54954,0.003123,0.000988,0.547604,0.551476,0.45046,0.003123,0.000988,0.448524,0.452396,0.0,0.0,0.0,0.0,0.0,0.0,0.0,0.0,0.0,0.0,0.0,0.0,0.0,0.0,0.0,
zipf_alpha_x_cache_gamma,B1,10,zipf_alpha_x_cache_gamma,alpha=1.1;gamma=2.0,80.0,0.82,0.82,0.55,1.1,3,5,3,0.9,0.15,2.0,56.8356,0.327861,0.103679,56.63239,57.03881,127.5009,0.174162,0.055075,127.392953,127.608847,0.75149,0.0034,0.001075,0.749383,0.753597,0.45046,0.003123,0.000988,0.448524,0.452396,0.45046,0.003123,0.000988,0.448524,0.452396,0.55168,0.005965,0.001886,0.547983,0.555377,0.0,0.0,0.0,0.0,0.0,
zipf_alpha_x_cache_gamma,B2,10,zipf_alpha_x_cache_gamma,alpha=1.1;gamma=2.0,80.0,0.82,0.82,0.55,1.1,3,5,3,0.9,0.15,2.0,53.6925,0.23,0.072732,53.549944,53.835056,103.1213,0.278907,0.088198,102.948431,103.294169,0.65876,0.003216,0.001017,0.656766,0.660754,0.45046,0.003123,0.000988,0.448524,0.452396,0.1395,0.00255,0.000806,0.13792,0.14108,0.217,0.010816,0.00342,0.210296,0.223704,0.30971,0.005927,0.001874,0.306036,0.313384,3.1431
zipf_alpha_x_cache_gamma,B0,10,zipf_alpha_x_cache_gamma,alpha=1.3;gamma=0.3,80.0,0.82,0.82,0.55,1.3,3,5,3,0.9,0.15,0.3,56.1713,0.250219,0.079126,56.016213,56.326387,101.3407,0.160719,0.050824,101.241086,101.440314,0.55143,0.003078,0.000973,0.549522,0.553338,0.44857,0.003078,0.000973,0.446662,0.450478,0.0,0.0,0.0,0.0,0.0,0.0,0.0,0.0,0.0,0.0,0.0,0.0,0.0,0.0,0.0,
zipf_alpha_x_cache_gamma,B1,10,zipf_alpha_x_cache_gamma,alpha=1.3;gamma=0.3,80.0,0.82,0.82,0.55,1.3,3,5,3,0.9,0.15,0.3,48.4842,0.288899,0.091358,48.305139,48.663261,124.5404,0.247179,0.078165,124.387197,124.693603,0.88888,0.003145,0.000994,0.886931,0.890829,0.44857,0.003078,0.000973,0.446662,0.450478,0.44857,0.003078,0.000973,0.446662,0.450478,0.24772,0.006388,0.00202,0.243761,0.251679,0.0,0.0,0.0,0.0,0.0,
zipf_alpha_x_cache_gamma,B2,10,zipf_alpha_x_cache_gamma,alpha=1.3;gamma=0.3,80.0,0.82,0.82,0.55,1.3,3,5,3,0.9,0.15,0.3,47.9541,0.23357,0.073861,47.809332,48.098868,123.3094,0.152114,0.048103,123.215119,123.403681,0.87958,0.002365,0.000748,0.878114,0.881046,0.44857,0.003078,0.000973,0.446662,0.450478,0.40971,0.003014,0.000953,0.407842,0.411578,0.19906,0.005637,0.001783,0.195566,0.202554,0.91337,0.003535,0.001118,0.911179,0.915561,0.5301
zipf_alpha_x_cache_gamma,B0,10,zipf_alpha_x_cache_gamma,alpha=1.3;gamma=0.6,80.0,0.82,0.82,0.55,1.3,3,5,3,0.9,0.15,0.6,56.1183,0.408773,0.129265,55.86494,56.37166,101.2687,0.173155,0.054756,101.161377,101.376023,0.55212,0.005454,0.001725,0.548739,0.555501,0.44788,0.005454,0.001725,0.444499,0.451261,0.0,0.0,0.0,0.0,0.0,0.0,0.0,0.0,0.0,0.0,0.0,0.0,0.0,0.0,0.0,
zipf_alpha_x_cache_gamma,B1,10,zipf_alpha_x_cache_gamma,alpha=1.3;gamma=0.6,80.0,0.82,0.82,0.55,1.3,3,5,3,0.9,0.15,0.6,51.304,0.396669,0.125438,51.058142,51.549858,125.9125,0.167674,0.053023,125.808574,126.016426,0.84137,0.004302,0.00136,0.838703,0.844037,0.44788,0.005454,0.001725,0.444499,0.451261,0.44788,0.005454,0.001725,0.444499,0.451261,0.35419,0.009108,0.00288,0.348545,0.359835,0.0,0.0,0.0,0.0,0.0,
zipf_alpha_x_cache_gamma,B2,10,zipf_alpha_x_cache_gamma,alpha=1.3;gamma=0.6,80.0,0.82,0.82,0.55,1.3,3,5,3,0.9,0.15,0.6,50.0952,0.343666,0.108677,49.882193,50.308207,122.4401,0.23321,0.073747,122.295555,122.584645,0.79966,0.003916,0.001238,0.797233,0.802087,0.44788,0.005454,0.001725,0.444499,0.451261,0.31533,0.006211,0.001964,0.311481,0.319179,0.21501,0.00859,0.002716,0.209686,0.220334,0.70401,0.007381,0.002334,0.699435,0.708585,1.2088
zipf_alpha_x_cache_gamma,B0,10,zipf_alpha_x_cache_gamma,alpha=1.3;gamma=1.0,80.0,0.82,0.82,0.55,1.3,3,5,3,0.9,0.15,1.0,56.2499,0.289948,0.09169,56.070188,56.429612,101.466,0.164066,0.051882,101.364311,101.567689,0.55089,0.003645,0.001153,0.548631,0.553149,0.44911,0.003645,0.001153,0.446851,0.451369,0.0,0.0,0.0,0.0,0.0,0.0,0.0,0.0,0.0,0.0,0.0,0.0,0.0,0.0,0.0,
zipf_alpha_x_cache_gamma,B1,10,zipf_alpha_x_cache_gamma,alpha=1.3;gamma=1.0,80.0,0.82,0.82,0.55,1.3,3,5,3,0.9,0.15,1.0,53.3052,0.371968,0.117627,53.074652,53.535748,126.5502,0.126783,0.040092,126.471619,126.628781,0.80955,0.003923,0.001241,0.807119,0.811981,0.44911,0.003645,0.001153,0.446851,0.451369,0.44911,0.003645,0.001153,0.446851,0.451369,0.42405,0.007412,0.002344,0.419456,0.428644,0.0,0.0,0.0,0.0,0.0,
zipf_alpha_x_cache_gamma,B2,10,zipf_alpha_x_cache_gamma,alpha=1.3;gamma=1.0,80.0,0.82,0.82,0.55,1.3,3,5,3,0.9,0.15,1.0,51.3428,0.270294,0.085474,51.17527,51.51033,107.6356,2.414103,0.763406,106.139324,109.131876,0.74499,0.003471,0.001098,0.742838,0.747142,0.44911,0.003645,0.001153,0.446851,0.451369,0.24068,0.004138,0.001309,0.238115,0.243245,0.19354,0.007039,0.002226,0.189177,0.197903,0.53589,0.007375,0.002332,0.531319,0.540461,1.9624
zipf_alpha_x_cache_gamma,B0,10,zipf_alpha_x_cache_gamma,alpha=1.3;gamma=1.4,80.0,0.82,0.82,0.55,1.3,3,5,3,0.9,0.15,1.4,56.3066,0.304686,0.09635,56.117754,56.495446,101.3582,0.053866,0.017034,101.324814,101.391586,0.54987,0.003988,0.001261,0.547398,0.552342,0.45013,0.003988,0.001261,0.447658,0.452602,0.0,0.0,0.0,0.0,0.0,0.0,0.0,0.0,0.0,0.0,0.0,0.0,0.0,0.0,0.0,
zipf_alpha_x_cache_gamma,B1,10,zipf_alpha_x_cache_gamma,alpha=1.3;gamma=1.4,80.0,0.82,0.82,0.55,1.3,3,5,3,0.9,0.15,1.4,54.3536,0.343568,0.108646,54.140655,54.566545,126.8648,0.106723,0.033749,126.798653,126.930947,0.79248,0.003545,0.001121,0.790283,0.794677,0.45013,0.003988,0.001261,0.447658,0.452602,0.45013,0.003988,0.001261,0.447658,0.452602,0.46102,0.006506,0.002057,0.456988,0.465052,0.0,0.0,0.0,0.0,0.0,
zipf_alpha_x_cache_gamma,B2,10,zipf_alpha_x_cache_gamma,alpha=1.3;gamma=1.4,80.0,0.82,0.82,0.55,1.3,3,5,3,0.9,0.15,1.4,51.9968,0.323757,0.102381,51.796133,52.197467,103.2141,0.433976,0.137235,102.945119,103.483081,0.71458,0.004351,0.001376,0.711883,0.717277,0.45013,0.003988,0.001261,0.447658,0.452602,0.19903,0.002242,0.000709,0.19764,0.20042,0.17245,0.010148,0.003209,0.16616,0.17874,0.44217,0.004563,0.001443,0.439342,0.444998,2.3568
zipf_alpha_x_cache_gamma,B0,10,zipf_alpha_x_cache_gamma,alpha=1.3;gamma=2.0,80.0,0.82,0.82,0.55,1.3,3,5,3,0.9,0.15,2.0,56.2268,0.39594,0.125207,55.981394,56.472206,101.3267,0.147885,0.046765,101.23504,101.41836,0.55088,0.005136,0.001624,0.547697,0.554063,0.44912,0.005136,0.001624,0.445937,0.452303,0.0,0.0,0.0,0.0,0.0,0.0,0.0,0.0,0.0,0.0,0.0,0.0,0.0,0.0,0.0,
zipf_alpha_x_cache_gamma,B1,10,zipf_alpha_x_cache_gamma,alpha=1.3;gamma=2.0,80.0,0.82,0.82,0.55,1.3,3,5,3,0.9,0.15,2.0,55.0184,0.468186,0.148054,54.728215,55.308585,126.9648,0.162156,0.051278,126.864295,127.065305,0.78061,0.004668,0.001476,0.777717,0.783503,0.44912,0.005136,0.001624,0.445937,0.452303,0.44912,0.005136,0.001624,0.445937,0.452303,0.48847,0.007938,0.00251,0.48355,0.49339,0.0,0.0,0.0,0.0,0.0,
zipf_alpha_x_cache_gamma,B2,10,zipf_alpha_x_cache_gamma,alpha=1.3;gamma=2.0,80.0,0.82,0.82,0.55,1.3,3,5,3,0.9,0.15,2.0,52.3026,0.36469,0.115325,52.076563,52.528637,102.4465,0.374827,0.118531,102.21418,102.67882,0.69825,0.003232,0.001022,0.696247,0.700253,0.44912,0.005136,0.001624,0.445937,0.452303,0.17564,0.004231,0.001338,0.173017,0.178263,0.16084,0.008263,0.002613,0.155719,0.165961,0.39105,0.005953,0.001882,0.38736,0.39474,2.7158
zipf_alpha_x_cache_gamma,B0,10,zipf_alpha_x_cache_gamma,alpha=1.5;gamma=0.3,80.0,0.82,0.82,0.55,1.5,3,5,3,0.9,0.15,0.3,56.285,0.339008,0.107204,56.074881,56.495119,101.5078,0.144585,0.045722,101.418185,101.597415,0.55031,0.004506,0.001425,0.547517,0.553103,0.44969,0.004506,0.001425,0.446897,0.452483,0.0,0.0,0.0,0.0,0.0,0.0,0.0,0.0,0.0,0.0,0.0,0.0,0.0,0.0,0.0,
zipf_alpha_x_cache_gamma,B1,10,zipf_alpha_x_cache_gamma,alpha=1.5;gamma=0.3,80.0,0.82,0.82,0.55,1.5,3,5,3,0.9,0.15,0.3,47.5606,0.288787,0.091322,47.381608,47.739592,124.0487,0.216282,0.068394,123.914647,124.182753,0.90557,0.003536,0.001118,0.903378,0.907762,0.44969,0.004506,0.001425,0.446897,0.452483,0.44969,0.004506,0.001425,0.446897,0.452483,0.21002,0.008048,0.002545,0.205032,0.215008,0.0,0.0,0.0,0.0,0.0,
zipf_alpha_x_cache_gamma,B2,10,zipf_alpha_x_cache_gamma,alpha=1.5;gamma=0.3,80.0,0.82,0.82,0.55,1.5,3,5,3,0.9,0.15,0.3,47.2254,0.249039,0.078753,47.071044,47.379756,122.6017,0.25622,0.081024,122.442893,122.760507,0.89424,0.003313,0.001048,0.892186,0.896294,0.44969,0.004506,0.001425,0.446897,0.452483,0.41344,0.005233,0.001655,0.410197,0.416683,0.16816,0.008746,0.002766,0.162739,0.173581,0.91937,0.004672,0.001477,0.916474,0.922266,0.3352
zipf_alpha_x_cache_gamma,B0,10,zipf_alpha_x_cache_gamma,alpha=1.5;gamma=0.6,80.0,0.82,0.82,0.55,1.5,3,5,3,0.9,0.15,0.6,56.2183,0.215149,0.068036,56.084949,56.351651,101.3307,0.120166,0.038,101.256221,101.405179,0.55104,0.002994,0.000947,0.549184,0.552896,0.44896,0.002994,0.000947,0.447104,0.450816,0.0,0.0,0.0,0.0,0.0,0.0,0.0,0.0,0.0,0.0,0.0,0.0,0.0,0.0,0.0,
zipf_alpha_x_cache_gamma,B1,10,zipf_alpha_x_cache_gamma,alpha=1.5;gamma=0.6,80.0,0.82,0.82,0.55,1.5,3,5,3,0.9,0.15,0.6,50.0848,0.214552,0.067847,49.951819,50.217781,125.3357,0.117757,0.037238,125.262714,125.408686,0.86278,0.002822,0.000892,0.861031,0.864529,0.44896,0.002994,0.000947,0.447104,0.450816,0.44896,0.002994,0.000947,0.447104,0.450816,0.30563,0.006096,0.001928,0.301852,0.309408,0.0,0.0,0.0,0.0,0.0,
zipf_alpha_x_cache_gamma,B2,10,zipf_alpha_x_cache_gamma,alpha=1.5;gamma=0.6,80.0,0.82,0.82,0.55,1.5,3,5,3,0.9,0.15,0.6,49.1161,0.145233,0.045927,49.026084,49.206116,122.4259,0.204973,0.064818,122.298856,122.552944,0.83238,0.001894,0.000599,0.831206,0.833554,0.44896,0.002994,0.000947,0.447104,0.450816,0.34922,0.002241,0.000709,0.347831,0.350609,0.19438,0.005234,0.001655,0.191136,0.197624,0.77788,0.004906,0.001551,0.77484,0.78092,0.9687
zipf_alpha_x_cache_gamma,B0,10,zipf_alpha_x_cache_gamma,alpha=1.5;gamma=1.0,80.0,0.82,0.82,0.55,1.5,3,5,3,0.9,0.15,1.0,56.3385,0.309352,0.097826,56.146762,56.530238,101.3933,0.146652,0.046376,101.302404,101.484196,0.54942,0.004019,0.001271,0.546929,0.551911,0.45058,0.004019,0.001271,0.448089,0.453071,0.0,0.0,0.0,0.0,0.0,0.0,0.0,0.0,0.0,0.0,0.0,0.0,0.0,0.0,0.0,
zipf_alpha_x_cache_gamma,B1,10,zipf_alpha_x_cache_gamma,alpha=1.5;gamma=1.0,80.0,0.82,0.82,0.55,1.5,3,5,3,0.9,0.15,1.0,51.9532,0.301016,0.095189,51.766629,52.139771,126.0331,0.191284,0.060489,125.914541,126.151659,0.83278,0.003892,0.001231,0.830368,0.835192,0.45058,0.004019,0.001271,0.448089,0.453071,0.45058,0.004019,0.001271,0.448089,0.453071,0.37114,0.009142,0.002891,0.365473,0.376807,0.0,0.0,0.0,0.0,0.0,
zipf_alpha_x_cache_gamma,B2,10,zipf_alpha_x_cache_gamma,alpha=1.5;gamma=1.0,80.0,0.82,0.82,0.55,1.5,3,5,3,0.9,0.15,1.0,50.3541,0.231493,0.073205,50.210619,50.497581,120.9427,0.269198,0.085128,120.775849,121.109551,0.78298,0.003381,0.001069,0.780885,0.785075,0.45058,0.004019,0.001271,0.448089,0.453071,0.28676,0.003332,0.001054,0.284695,0.288825,0.18556,0.006412,0.002028,0.181586,0.189534,0.63643,0.006338,0.002004,0.632501,0.640359,1.5991
zipf_alpha_x_cache_gamma,B0,10,zipf_alpha_x_cache_gamma,alpha=1.5;gamma=1.4,80.0,0.82,0.82,0.55,1.5,3,5,3,0.9,0.15,1.4,56.3985,0.40802,0.129027,56.145607,56.651393,101.4265,0.131885,0.041706,101.344757,101.508243,0.54877,0.005708,0.001805,0.545232,0.552308,0.45123,0.005708,0.001805,0.447692,0.454768,0.0,0.0,0.0,0.0,0.0,0.0,0.0,0.0,0.0,0.0,0.0,0.0,0.0,0.0,0.0,
zipf_alpha_x_cache_gamma,B1,10,zipf_alpha_x_cache_gamma,alpha=1.5;gamma=1.4,80.0,0.82,0.82,0.55,1.5,3,5,3,0.9,0.15,1.4,52.774,0.426462,0.134859,52.509676,53.038324,126.4199,0.158095,0.049994,126.321912,126.517888,0.81975,0.004332,0.00137,0.817065,0.822435,0.45123,0.005708,0.001805,0.447692,0.454768,0.45123,0.005708,0.001805,0.447692,0.454768,0.39947,0.008331,0.002635,0.394306,0.404634,0.0,0.0,0.0,0.0,0.0,
zipf_alpha_x_cache_gamma,B2,10,zipf_alpha_x_cache_gamma,alpha=1.5;gamma=1.4,80.0,0.82,0.82,0.55,1.5,3,5,3,0.9,0.15,1.4,50.8153,0.360512,0.114004,50.591853,51.038747,105.4164,0.75216,0.237854,104.950206,105.882594,0.76174,0.004947,0.001564,0.758674,0.764806,0.45123,0.005708,0.001805,0.447692,0.454768,0.25697,0.005459,0.001726,0.253586,0.260354,0.17125,0.005646,0.001786,0.16775,0.17475,0.56949,0.009579,0.003029,0.563553,0.575427,1.9587
zipf_alpha_x_cache_gamma,B0,10,zipf_alpha_x_cache_gamma,alpha=1.5;gamma=2.0,80.0,0.82,0.82,0.55,1.5,3,5,3,0.9,0.15,2.0,56.2834,0.410965,0.129958,56.028682,56.538118,101.4076,0.166435,0.052631,101.304443,101.510757,0.55015,0.005459,0.001726,0.546766,0.553534,0.44985,0.005459,0.001726,0.446466,0.453234,0.0,0.0,0.0,0.0,0.0,0.0,0.0,0.0,0.0,0.0,0.0,0.0,0.0,0.0,0.0,
zipf_alpha_x_cache_gamma,B1,10,zipf_alpha_x_cache_gamma,alpha=1.5;gamma=2.0,80.0,0.82,0.82,0.55,1.5,3,5,3,0.9,0.15,2.0,53.377,0.428729,0.135576,53.111271,53.642729,126.5441,0.226901,0.071752,126.403466,126.684734,0.80852,0.003786,0.001197,0.806173,0.810867,0.44985,0.005459,0.001726,0.446466,0.453234,0.44985,0.005459,0.001726,0.446466,0.453234,0.42565,0.006143,0.001943,0.421843,0.429457,0.0,0.0,0.0,0.0,0.0,
zipf_alpha_x_cache_gamma,B2,10,zipf_alpha_x_cache_gamma,alpha=1.5;gamma=2.0,80.0,0.82,0.82,0.55,1.5,3,5,3,0.9,0.15,2.0,51.1347,0.331247,0.10475,50.929391,51.340009,103.3713,0.504034,0.15939,103.058896,103.683704,0.74328,0.004031,0.001275,0.740782,0.745778,0.44985,0.005459,0.001726,0.446466,0.453234,0.22997,0.005217,0.00165,0.226737,0.233203,0.16017,0.004734,0.001497,0.157236,0.163104,0.51121,0.009719,0.003073,0.505186,0.517234,2.2423
