scenario,policy,trial_count,sweep_name,sweep_value,origin_delay,es_availability,local_es_availability,neighbor_es_availability,zipf_alpha,local_es_count,neighbor_group_size,k,neighbor_cache_hot_prob,neighbor_cache_cold_prob,neighbor_cache_rank_gamma,mean_response_time_mean,mean_response_time_std,mean_response_time_stderr,mean_response_time_ci95_low,mean_response_time_ci95_high,p95_response_time_mean,p95_response_time_std,p95_response_time_stderr,p95_response_time_ci95_low,p95_response_time_ci95_high,fallback_mean_response_time_mean,fallback_mean_response_time_std,fallback_mean_response_time_stderr,fallback_mean_response_time_ci95_low,fallback_mean_response_time_ci95_high,fallback_p95_response_time_mean,fallback_p95_response_time_std,fallback_p95_response_time_stderr,fallback_p95_response_time_ci95_low,fallback_p95_response_time_ci95_high,origin_free_rate_mean,origin_free_rate_std,origin_free_rate_stderr,origin_free_rate_ci95_low,origin_free_rate_ci95_high,local_failure_rate_mean,local_failure_rate_std,local_failure_rate_stderr,local_failure_rate_ci95_low,local_failure_rate_ci95_high,neighbor_attempt_rate_mean,neighbor_attempt_rate_std,neighbor_attempt_rate_stderr,neighbor_attempt_rate_ci95_low,neighbor_attempt_rate_ci95_high,neighbor_skip_rate_mean,neighbor_skip_rate_std,neighbor_skip_rate_stderr,neighbor_skip_rate_ci95_low,neighbor_skip_rate_ci95_high,neighbor_failure_rate_mean,neighbor_failure_rate_std,neighbor_failure_rate_stderr,neighbor_failure_rate_ci95_low,neighbor_failure_rate_ci95_high,b2_neighbor_choice_rate_mean,b2_neighbor_choice_rate_std,b2_neighbor_choice_rate_stderr,b2_neighbor_choice_rate_ci95_low,b2_neighbor_choice_rate_ci95_high,b2_advantage_vs_b1_mean,b2_fallback_advantage_vs_b1_mean
zipf_alpha_x_cache_gamma,B0,10,zipf_alpha_x_cache_gamma,alpha=0.6;gamma=0.3,80.0,0.82,0.82,0.55,0.6,3,5,3,0.9,0.15,0.3,56.1782,0.403066,0.127461,55.928377,56.428023,101.351,0.146572,0.04635,101.260154,101.441846,96.9975,0.034378,0.010871,96.976192,97.018808,103.8615,0.153683,0.048599,103.766246,103.956754,0.55162,0.005507,0.001741,0.548207,0.555033,0.44838,0.005507,0.001741,0.444967,0.451793,0.0,0.0,0.0,0.0,0.0,1.0,0.0,0.0,1.0,1.0,0.0,0.0,0.0,0.0,0.0,0.0,0.0,0.0,0.0,0.0,,
zipf_alpha_x_cache_gamma,B1,10,zipf_alpha_x_cache_gamma,alpha=0.6;gamma=0.3,80.0,0.82,0.82,0.55,0.6,3,5,3,0.9,0.15,0.3,49.2595,0.290797,0.091958,49.079262,49.439738,125.0171,0.23347,0.07383,124.872394,125.161806,81.5681,0.354575,0.112126,81.348332,81.787868,127.8225,0.187027,0.059143,127.70658,127.93842,0.87618,0.002521,0.000797,0.874617,0.877743,0.44838,0.005507,0.001741,0.444967,0.451793,0.44838,0.005507,0.001741,0.444967,0.451793,0.0,0.0,0.0,0.0,0.0,0.27618,0.00606,0.001916,0.272424,0.279936,0.0,0.0,0.0,0.0,0.0,,
zipf_alpha_x_cache_gamma,B2,10,zipf_alpha_x_cache_gamma,alpha=0.6;gamma=0.3,80.0,0.82,0.82,0.55,0.6,3,5,3,0.9,0.15,0.3,48.76,0.295301,0.093382,48.576971,48.943029,123.431,0.127772,0.040405,123.351806,123.510194,80.4541,0.254074,0.080345,80.296624,80.611576,126.4385,0.2143,0.067767,126.305676,126.571324,0.85608,0.002461,0.000778,0.854555,0.857605,0.44838,0.005507,0.001741,0.444967,0.451793,0.38748,0.004927,0.001558,0.384426,0.390534,0.13583,0.004064,0.001285,0.133311,0.138349,0.21427,0.005371,0.001699,0.210941,0.217599,0.86417,0.004064,0.001285,0.861651,0.866689,0.4995,1.114
zipf_alpha_x_cache_gamma,B0,10,zipf_alpha_x_cache_gamma,alpha=0.6;gamma=0.6,80.0,0.82,0.82,0.55,0.6,3,5,3,0.9,0.15,0.6,55.9776,0.333845,0.105571,55.770681,56.184519,101.3393,0.100497,0.03178,101.277012,101.401588,97.0099,0.049036,0.015507,96.979507,97.040293,103.8018,0.194736,0.061581,103.681102,103.922498,0.55444,0.004618,0.00146,0.551578,0.557302,0.44556,0.004618,0.00146,0.442698,0.448422,0.0,0.0,0.0,0.0,0.0,1.0,0.0,0.0,1.0,1.0,0.0,0.0,0.0,0.0,0.0,0.0,0.0,0.0,0.0,0.0,,
zipf_alpha_x_cache_gamma,B1,10,zipf_alpha_x_cache_gamma,alpha=0.6;gamma=0.6,80.0,0.82,0.82,0.55,0.6,3,5,3,0.9,0.15,0.6,53.6572,0.566071,0.179007,53.306346,54.008054,126.7357,0.099546,0.031479,126.674001,126.797399,91.7983,0.752987,0.238115,91.331594,92.265006,129.3184,0.097318,0.030775,129.258082,129.378718,0.80104,0.007018,0.002219,0.79669,0.80539,0.44556,0.004618,0.00146,0.442698,0.448422,0.44556,0.004618,0.00146,0.442698,0.448422,0.0,0.0,0.0,0.0,0.0,0.44648,0.012765,0.004037,0.438568,0.454392,0.0,0.0,0.0,0.0,0.0,,
zipf_alpha_x_cache_gamma,B2,10,zipf_alpha_x_cache_gamma,alpha=0.6;gamma=0.6,80.0,0.82,0.82,0.55,0.6,3,5,3,0.9,0.15,0.6,52.3887,0.498542,0.157653,52.079701,52.697699,125.4353,0.186633,0.059018,125.319624,125.550976,88.9518,0.627431,0.198411,88.562915,89.340685,128.1526,0.108176,0.034208,128.085552,128.219648,0.78682,0.007433,0.002351,0.782213,0.791427,0.44556,0.004618,0.00146,0.442698,0.448422,0.36978,0.003386,0.001071,0.367682,0.371878,0.17004,0.007253,0.002294,0.165544,0.174536,0.37159,0.011562,0.003656,0.364424,0.378756,0.82996,0.007253,0.002294,0.825464,0.834456,1.2685,2.8465
zipf_alpha_x_cache_gamma,B0,10,zipf_alpha_x_cache_gamma,alpha=0.6;gamma=1.0,80.0,0.82,0.82,0.55,0.6,3,5,3,0.9,0.15,1.0,56.2665,0.515265,0.162941,55.947135,56.585865,101.4622,0.118765,0.037557,101.388589,101.535811,97.0154,0.030841,0.009753,96.996285,97.034515,103.909,0.192566,0.060895,103.789646,104.028354,0.55041,0.006844,0.002164,0.546168,0.554652,0.44959,0.006844,0.002164,0.445348,0.453832,0.0,0.0,0.0,0.0,0.0,1.0,0.0,0.0,1.0,1.0,0.0,0.0,0.0,0.0,0.0,0.0,0.0,0.0,0.0,0.0,,
zipf_alpha_x_cache_gamma,B1,10,zipf_alpha_x_cache_gamma,alpha=0.6;gamma=1.0,80.0,0.82,0.82,0.55,0.6,3,5,3,0.9,0.15,1.0,57.0657,0.569089,0.179962,56.712975,57.418425,127.4937,0.113261,0.035816,127.4235,127.5639,98.7925,0.4111,0.130001,98.537698,99.047302,130.2163,0.212555,0.067216,130.084557,130.348043,0.7469,0.005139,0.001625,0.743715,0.750085,0.44959,0.006844,0.002164,0.445348,0.453832,0.44959,0.006844,0.002164,0.445348,0.453832,0.0,0.0,0.0,0.0,0.0,0.56295,0.007005,0.002215,0.558608,0.567292,0.0,0.0,0.0,0.0,0.0,,
zipf_alpha_x_cache_gamma,B2,10,zipf_alpha_x_cache_gamma,alpha=0.6;gamma=1.0,80.0,0.82,0.82,0.55,0.6,3,5,3,0.9,0.15,1.0,54.6817,0.494667,0.156427,54.375102,54.988298,118.5115,4.306954,1.361978,115.842022,121.180978,93.4907,0.158599,0.050154,93.392399,93.589001,124.6906,0.256622,0.081151,124.531544,124.849656,0.64474,0.005171,0.001635,0.641535,0.647945,0.44959,0.006844,0.002164,0.445348,0.453832,0.14554,0.003659,0.001157,0.143272,0.147808,0.67631,0.004288,0.001356,0.673652,0.678968,0.35185,0.008552,0.002704,0.346549,0.357151,0.32369,0.004288,0.001356,0.321032,0.326348,2.384,5.3018
zipf_alpha_x_cache_gamma,B0,10,zipf_alpha_x_cache_gamma,alpha=0.6;gamma=1.4,80.0,0.82,0.82,0.55,0.6,3,5,3,0.9,0.15,1.4,56.3547,0.311548,0.09852,56.1616,56.5478,101.3854,0.146745,0.046405,101.294447,101.476353,96.9946,0.041799,0.013218,96.968693,97.020507,103.8261,0.224442,0.070975,103.68699,103.96521,0.54925,0.004787,0.001514,0.546283,0.552217,0.45075,0.004787,0.001514,0.447783,0.453717,0.0,0.0,0.0,0.0,0.0,1.0,0.0,0.0,1.0,1.0,0.0,0.0,0.0,0.0,0.0,0.0,0.0,0.0,0.0,0.0,,
zipf_alpha_x_cache_gamma,B1,10,zipf_alpha_x_cache_gamma,alpha=0.6;gamma=1.4,80.0,0.82,0.82,0.55,0.6,3,5,3,0.9,0.15,1.4,58.6146,0.435342,0.137667,58.344772,58.884428,127.8483,0.120299,0.038042,127.773738,127.922862,102.0071,0.314002,0.099296,101.812479,102.201721,130.365,0.205936,0.065123,130.237359,130.492641,0.72193,0.004734,0.001497,0.718996,0.724864,0.45075,0.004787,0.001514,0.447783,0.453717,0.45075,0.004787,0.001514,0.447783,0.453717,0.0,0.0,0.0,0.0,0.0,0.61688,0.005101,0.001613,0.613719,0.620041,0.0,0.0,0.0,0.0,0.0,,
zipf_alpha_x_cache_gamma,B2,10,zipf_alpha_x_cache_gamma,alpha=0.6;gamma=1.4,80.0,0.82,0.82,0.55,0.6,3,5,3,0.9,0.15,1.4,55.3137,0.363602,0.114981,55.088337,55.539063,103.1861,0.27455,0.08682,103.015932,103.356268,94.6841,0.170356,0.053871,94.578512,94.789688,121.7537,0.444217,0.140474,121.478371,122.029029,0.60549,0.00629,0.001989,0.601591,0.609389,0.45075,0.004787,0.001514,0.447783,0.453717,0.08334,0.002614,0.000827,0.08172,0.08496,0.81506,0.006893,0.00218,0.810788,0.819332,0.3251,0.014974,0.004735,0.315819,0.334381,0.18494,0.006893,0.00218,0.180668,0.189212,3.3009,7.323
zipf_alpha_x_cache_gamma,B0,10,zipf_alpha_x_cache_gamma,alpha=0.6;gamma=2.0,80.0,0.82,0.82,0.55,0.6,3,5,3,0.9,0.15,2.0,55.9288,0.338382,0.107006,55.719069,56.138531,101.2589,0.14469,0.045755,101.16922,101.34858,96.9569,0.041794,0.013217,96.930996,96.982804,103.7169,0.18955,0.059941,103.599416,103.834384,0.55476,0.004471,0.001414,0.551989,0.557531,0.44524,0.004471,0.001414,0.442469,0.448011,0.0,0.0,0.0,0.0,0.0,1.0,0.0,0.0,1.0,1.0,0.0,0.0,0.0,0.0,0.0,0.0,0.0,0.0,0.0,0.0,,
zipf_alpha_x_cache_gamma,B1,10,zipf_alpha_x_cache_gamma,alpha=0.6;gamma=2.0,80.0,0.82,0.82,0.55,0.6,3,5,3,0.9,0.15,2.0,59.0615,0.498561,0.157659,58.752489,59.370511,127.8893,0.10591,0.033492,127.823656,127.954944,103.9908,0.50504,0.159708,103.677773,104.303827,130.4262,0.175416,0.055471,130.317476,130.534924,0.71033,0.00548,0.001733,0.706934,0.713726,0.44524,0.004471,0.001414,0.442469,0.448011,0.44524,0.004471,0.001414,0.442469,0.448011,0.0,0.0,0.0,0.0,0.0,0.65057,0.008349,0.00264,0.645395,0.655745,0.0,0.0,0.0,0.0,0.0,,
zipf_alpha_x_cache_gamma,B2,10,zipf_alpha_x_cache_gamma,alpha=0.6;gamma=2.0,80.0,0.82,0.82,0.55,0.6,3,5,3,0.9,0.15,2.0,55.1575,0.344356,0.108895,54.944066,55.370934,101.9383,0.187263,0.059218,101.822233,102.054367,95.2236,0.132137,0.041785,95.1417,95.3055,106.4264,0.329988,0.104351,106.221871,106.630929,0.59121,0.004412,0.001395,0.588476,0.593944,0.44524,0.004471,0.001414,0.442469,0.448011,0.05055,0.001285,0.000406,0.049753,0.051347,0.88646,0.002612,0.000826,0.884841,0.888079,0.27895,0.017037,0.005387,0.268391,0.289509,0.11354,0.002612,0.000826,0.111921,0.115159,3.904,8.7672
zipf_alpha_x_cache_gamma,B0,10,zipf_alpha_x_cache_gamma,alpha=0.8;gamma=0.3,80.0,0.82,0.82,0.55,0.8,3,5,3,0.9,0.15,0.3,56.0032,0.447864,0.141627,55.725611,56.280789,101.4156,0.108006,0.034155,101.348657,101.482543,97.0143,0.049855,0.015766,96.983399,97.045201,103.9523,0.176971,0.055963,103.842612,104.061988,0.55423,0.00594,0.001878,0.550548,0.557912,0.44577,0.00594,0.001878,0.442088,0.449452,0.0,0.0,0.0,0.0,0.0,1.0,0.0,0.0,1.0,1.0,0.0,0.0,0.0,0.0,0.0,0.0,0.0,0.0,0.0,0.0,,
zipf_alpha_x_cache_gamma,B1,10,zipf_alpha_x_cache_gamma,alpha=0.8;gamma=0.3,80.0,0.82,0.82,0.55,0.8,3,5,3,0.9,0.15,0.3,49.7671,0.363654,0.114998,49.541705,49.992495,125.3115,0.155155,0.049064,125.215334,125.407666,83.0271,0.592227,0.187278,82.660034,83.394166,128.1106,0.193526,0.061198,127.990651,128.230549,0.86619,0.003936,0.001245,0.863751,0.868629,0.44577,0.00594,0.001878,0.442088,0.449452,0.44577,0.00594,0.001878,0.442088,0.449452,0.0,0.0,0.0,0.0,0.0,0.30022,0.009437,0.002984,0.294371,0.306069,0.0,0.0,0.0,0.0,0.0,,
zipf_alpha_x_cache_gamma,B2,10,zipf_alpha_x_cache_gamma,alpha=0.8;gamma=0.3,80.0,0.82,0.82,0.55,0.8,3,5,3,0.9,0.15,0.3,49.1186,0.326116,0.103127,48.916471,49.320729,123.8475,0.189745,0.060003,123.729895,123.965105,81.5733,0.599972,0.189728,81.201434,81.945166,126.7577,0.23559,0.0745,126.61168,126.90372,0.84983,0.004149,0.001312,0.847258,0.852402,0.44577,0.00594,0.001878,0.442088,0.449452,0.38755,0.005907,0.001868,0.383889,0.391211,0.13061,0.004719,0.001492,0.127685,0.133535,0.23733,0.010529,0.00333,0.230804,0.243856,0.86939,0.004719,0.001492,0.866465,0.872315,0.6485,1.4538
zipf_alpha_x_cache_gamma,B0,10,zipf_alpha_x_cache_gamma,alpha=0.8;gamma=0.6,80.0,0.82,0.82,0.55,0.8,3,5,3,0.9,0.15,0.6,56.2851,0.347941,0.110029,56.069444,56.500756,101.3824,0.134691,0.042593,101.298918,101.465882,96.993,0.04665,0.014752,96.964086,97.021914,103.8524,0.1749,0.055308,103.743996,103.960804,0.55009,0.004915,0.001554,0.547044,0.553136,0.44991,0.004915,0.001554,0.446864,0.452956,0.0,0.0,0.0,0.0,0.0,1.0,0.0,0.0,1.0,1.0,0.0,0.0,0.0,0.0,0.0,0.0,0.0,0.0,0.0,0.0,,
zipf_alpha_x_cache_gamma,B1,10,zipf_alpha_x_cache_gamma,alpha=0.8;gamma=0.6,80.0,0.82,0.82,0.55,0.8,3,5,3,0.9,0.15,0.6,54.3506,0.346771,0.109659,54.135669,54.565531,126.7618,0.103895,0.032854,126.697405,126.826195,92.6942,0.454418,0.143699,92.412549,92.975851,129.4319,0.203508,0.064355,129.305765,129.558035,0.79229,0.00369,0.001167,0.790003,0.794577,0.44991,0.004915,0.001554,0.446864,0.452956,0.44991,0.004915,0.001554,0.446864,0.452956,0.0,0.0,0.0,0.0,0.0,0.46169,0.007489,0.002368,0.457048,0.466332,0.0,0.0,0.0,0.0,0.0,,
zipf_alpha_x_cache_gamma,B2,10,zipf_alpha_x_cache_gamma,alpha=0.8;gamma=0.6,80.0,0.82,0.82,0.55,0.8,3,5,3,0.9,0.15,0.6,52.8395,0.337251,0.106648,52.630469,53.048531,123.7643,0.204245,0.064588,123.637708,123.890892,89.335,0.334158,0.10567,89.127887,89.542113,126.6582,0.26268,0.083067,126.495389,126.821011,0.73765,0.004241,0.001341,0.735021,0.740279,0.44991,0.004915,0.001554,0.446864,0.452956,0.27886,0.004356,0.001377,0.27616,0.28156,0.38018,0.007465,0.002361,0.375553,0.384807,0.32738,0.009627,0.003044,0.321413,0.333347,0.61982,0.007465,0.002361,0.615193,0.624447,1.5111,3.3592
zipf_alpha_x_cache_gamma,B0,10,zipf_alpha_x_cache_gamma,alpha=0.8;gamma=1.0,80.0,0.82,0.82,0.55,0.8,3,5,3,0.9,0.15,1.0,56.1727,0.177472,0.056122,56.062702,56.282698,101.4274,0.091709,0.029001,101.370558,101.484242,97.0187,0.047691,0.015081,96.989141,97.048259,103.9674,0.143057,0.045239,103.878732,104.056068,0.55193,0.002426,0.000767,0.550426,0.553434,0.44807,0.002426,0.000767,0.446566,0.449574,0.0,0.0,0.0,0.0,0.0,1.0,0.0,0.0,1.0,1.0,0.0,0.0,0.0,0.0,0.0,0.0,0.0,0.0,0.0,0.0,,
zipf_alpha_x_cache_gamma,B1,10,zipf_alpha_x_cache_gamma,alpha=0.8;gamma=1.0,80.0,0.82,0.82,0.55,0.8,3,5,3,0.9,0.15,1.0,56.7702,0.30528,0.096538,56.580985,56.959415,127.4589,0.094001,0.029726,127.400638,127.517162,98.3512,0.372842,0.117903,98.12011,98.58229,130.0217,0.108186,0.034211,129.954646,130.088754,0.75107,0.003801,0.001202,0.748714,0.753426,0.44807,0.002426,0.000767,0.446566,0.449574,0.44807,0.002426,0.000767,0.446566,0.449574,0.0,0.0,0.0,0.0,0.0,0.55555,0.006548,0.002071,0.551491,0.559609,0.0,0.0,0.0,0.0,0.0,,
zipf_alpha_x_cache_gamma,B2,10,zipf_alpha_x_cache_gamma,alpha=0.8;gamma=1.0,80.0,0.82,0.82,0.55,0.8,3,5,3,0.9,0.15,1.0,54.1084,0.221941,0.070184,53.97084,54.24596,106.2014,0.458614,0.145026,105.917148,106.485652,92.4114,0.256415,0.081086,92.252472,92.570328,124.003,0.191393,0.060524,123.884374,124.121626,0.65403,0.003971,0.001256,0.651569,0.656491,0.44807,0.002426,0.000767,0.446566,0.449574,0.14506,0.002464,0.000779,0.143533,0.146587,0.67626,0.005786,0.00183,0.672674,0.679846,0.29626,0.01064,0.003365,0.289665,0.302855,0.32374,0.005786,0.00183,0.320154,0.327326,2.6618,5.9398
zipf_alpha_x_cache_gamma,B0,10,zipf_alpha_x_cache_gamma,alpha=0.8;gamma=1.4,80.0,0.82,0.82,0.55,0.8,3,5,3,0.9,0.15,1.4,56.2566,0.305321,0.096551,56.06736,56.44584,101.3804,0.085274,0.026966,101.327547,101.433253,96.99,0.034157,0.010801,96.96883,97.01117,103.8614,0.11887,0.03759,103.787724,103.935076,0.5507,0.004443,0.001405,0.547946,0.553454,0.4493,0.004443,0.001405,0.446546,0.452054,0.0,0.0,0.0,0.0,0.0,1.0,0.0,0.0,1.0,1.0,0.0,0.0,0.0,0.0,0.0,0.0,0.0,0.0,0.0,0.0,,
zipf_alpha_x_cache_gamma,B1,10,zipf_alpha_x_cache_gamma,alpha=0.8;gamma=1.4,80.0,0.82,0.82,0.55,0.8,3,5,3,0.9,0.15,1.4,58.0214,0.305087,0.096477,57.832305,58.210495,127.7387,0.117151,0.037047,127.666089,127.811311,100.9192,0.379404,0.119978,100.684043,101.154357,130.3395,0.169716,0.053669,130.234309,130.444691,0.73096,0.003045,0.000963,0.729073,0.732847,0.4493,0.004443,0.001405,0.446546,0.452054,0.4493,0.004443,0.001405,0.446546,0.452054,0.0,0.0,0.0,0.0,0.0,0.59882,0.006252,0.001977,0.594945,0.602695,0.0,0.0,0.0,0.0,0.0,,
zipf_alpha_x_cache_gamma,B2,10,zipf_alpha_x_cache_gamma,alpha=0.8;gamma=1.4,80.0,0.82,0.82,0.55,0.8,3,5,3,0.9,0.15,1.4,54.6669,0.292885,0.092619,54.485368,54.848432,102.8622,0.196938,0.062277,102.740136,102.984264,93.4523,0.141406,0.044716,93.364656,93.539944,121.4343,0.364467,0.115255,121.208401,121.660199,0.62261,0.004029,0.001274,0.620113,0.625107,0.4493,0.004443,0.001405,0.446546,0.452054,0.09732,0.002899,0.000917,0.095523,0.099117,0.7834,0.005884,0.001861,0.779753,0.787047,0.26105,0.008723,0.002759,0.255643,0.266457,0.2166,0.005884,0.001861,0.212953,0.220247,3.3545,7.4669
zipf_alpha_x_cache_gamma,B0,10,zipf_alpha_x_cache_gamma,alpha=0.8;gamma=2.0,80.0,0.82,0.82,0.55,0.8,3,5,3,0.9,0.15,2.0,56.1141,0.494099,0.156248,55.807854,56.420346,101.4713,0.152153,0.048115,101.376994,101.565606,97.0226,0.051571,0.016308,96.990636,97.054564,103.9904,0.185017,0.058508,103.875725,104.105075,0.55257,0.006539,0.002068,0.548517,0.556623,0.44743,0.006539,0.002068,0.443377,0.451483,0.0,0.0,0.0,0.0,0.0,1.0,0.0,0.0,1.0,1.0,0.0,0.0,0.0,0.0,0.0,0.0,0.0,0.0,0.0,0.0,,
zipf_alpha_x_cache_gamma,B1,10,zipf_alpha_x_cache_gamma,alpha=0.8;gamma=2.0,80.0,0.82,0.82,0.55,0.8,3,5,3,0.9,0.15,2.0,58.5338,0.633052,0.200189,58.14143,58.92617,127.9684,0.148323,0.046904,127.876468,128.060332,102.4284,0.423993,0.134078,102.165607,102.691193,130.5772,0.207557,0.065635,130.448555,130.705845,0.72104,0.006166,0.00195,0.717218,0.724862,0.44743,0.006539,0.002068,0.443377,0.451483,0.44743,0.006539,0.002068,0.443377,0.451483,0.0,0.0,0.0,0.0,0.0,0.62343,0.007283,0.002303,0.618916,0.627944,0.0,0.0,0.0,0.0,0.0,,
zipf_alpha_x_cache_gamma,B2,10,zipf_alpha_x_cache_gamma,alpha=0.8;gamma=2.0,80.0,0.82,0.82,0.55,0.8,3,5,3,0.9,0.15,2.0,54.8202,0.512703,0.162131,54.502423,55.137977,102.268,0.199517,0.063093,102.144338,102.391662,94.1302,0.253655,0.080213,93.972983,94.287417,107.6915,0.611379,0.193335,107.312564,108.070436,0.60798,0.007455,0.002357,0.60336,0.6126,0.44743,0.006539,0.002068,0.443377,0.451483,0.07253,0.002606,0.000824,0.070915,0.074145,0.83784,0.006886,0.002178,0.833572,0.842108,0.23628,0.015484,0.004896,0.226683,0.245877,0.16216,0.006886,0.002178,0.157892,0.166428,3.7136,8.2982
zipf_alpha_x_cache_gamma,B0,10,zipf_alpha_x_cache_gamma,alpha=1.0;gamma=0.3,80.0,0.82,0.82,0.55,1.0,3,5,3,0.9,0.15,0.3,56.1887,0.294117,0.093008,56.006404,56.370996,101.4241,0.115991,0.03668,101.352208,101.495992,97.0235,0.05738,0.018145,96.987935,97.059065,103.9043,0.187403,0.059262,103.788146,104.020454,0.55181,0.003723,0.001177,0.549502,0.554118,0.44819,0.003723,0.001177,0.445882,0.450498,0.0,0.0,0.0,0.0,0.0,1.0,0.0,0.0,1.0,1.0,0.0,0.0,0.0,0.0,0.0,0.0,0.0,0.0,0.0,0.0,,
zipf_alpha_x_cache_gamma,B1,10,zipf_alpha_x_cache_gamma,alpha=1.0;gamma=0.3,80.0,0.82,0.82,0.55,1.0,3,5,3,0.9,0.15,0.3,49.727,0.227646,0.071988,49.585904,49.868096,125.213,0.157395,0.049773,125.115446,125.310554,82.6073,0.348061,0.110066,82.39157,82.82303,128.005,0.131872,0.041702,127.923265,128.086735,0.86866,0.002561,0.00081,0.867072,0.870248,0.44819,0.003723,0.001177,0.445882,0.450498,0.44819,0.003723,0.001177,0.445882,0.450498,0.0,0.0,0.0,0.0,0.0,0.29308,0.006112,0.001933,0.289292,0.296868,0.0,0.0,0.0,0.0,0.0,,
zipf_alpha_x_cache_gamma,B2,10,zipf_alpha_x_cache_gamma,alpha=1.0;gamma=0.3,80.0,0.82,0.82,0.55,1.0,3,5,3,0.9,0.15,0.3,49.1155,0.230618,0.072928,48.972562,49.258438,123.9389,0.091475,0.028927,123.882203,123.995597,81.2427,0.333098,0.105335,81.036244,81.449156,126.8999,0.232504,0.073524,126.755793,127.044007,0.85449,0.002993,0.000946,0.852635,0.856345,0.44819,0.003723,0.001177,0.445882,0.450498,0.39599,0.003885,0.001228,0.393582,0.398398,0.11647,0.004722,0.001493,0.113544,0.119396,0.23566,0.00613,0.001939,0.23186,0.23946,0.88353,0.004722,0.001493,0.880604,0.886456,0.6115,1.3646
zipf_alpha_x_cache_gamma,B0,10,zipf_alpha_x_cache_gamma,alpha=1.0;gamma=0.6,80.0,0.82,0.82,0.55,1.0,3,5,3,0.9,0.15,0.6,56.0293,0.307484,0.097235,55.83872,56.21988,101.3731,0.105005,0.033206,101.308017,101.438183,97.0011,0.035986,0.01138,96.978796,97.023404,103.8536,0.194136,0.061391,103.733273,103.973927,0.55358,0.004044,0.001279,0.551073,0.556087,0.44642,0.004044,0.001279,0.443913,0.448927,0.0,0.0,0.0,0.0,0.0,1.0,0.0,0.0,1.0,1.0,0.0,0.0,0.0,0.0,0.0,0.0,0.0,0.0,0.0,0.0,,
zipf_alpha_x_cache_gamma,B1,10,zipf_alpha_x_cache_gamma,alpha=1.0;gamma=0.6,80.0,0.82,0.82,0.55,1.0,3,5,3,0.9,0.15,0.6,53.4215,0.387259,0.122462,53.181474,53.661526,126.5739,0.156132,0.049373,126.477128,126.670672,91.1592,0.51332,0.162326,90.841041,91.477359,129.228,0.149575,0.0473,129.135292,129.320708,0.80537,0.004378,0.001384,0.802657,0.808083,0.44642,0.004044,0.001279,0.443913,0.448927,0.44642,0.004044,0.001279,0.443913,0.448927,0.0,0.0,0.0,0.0,0.0,0.43596,0.008441,0.002669,0.430728,0.441192,0.0,0.0,0.0,0.0,0.0,,
zipf_alpha_x_cache_gamma,B2,10,zipf_alpha_x_cache_gamma,alpha=1.0;gamma=0.6,80.0,0.82,0.82,0.55,1.0,3,5,3,0.9,0.15,0.6,51.8013,0.352171,0.111366,51.583022,52.019578,122.7114,0.230521,0.072897,122.568521,122.854279,87.5295,0.441625,0.139654,87.255778,87.803222,125.8563,0.275163,0.087014,125.685752,126.026848,0.74818,0.005522,0.001746,0.744757,0.751603,0.44642,0.004044,0.001279,0.443913,0.448927,0.266,0.004222,0.001335,0.263383,0.268617,0.40415,0.008149,0.002577,0.399099,0.409201,0.26849,0.009602,0.003037,0.262538,0.274442,0.59585,0.008149,0.002577,0.590799,0.600901,1.6202,3.6297
zipf_alpha_x_cache_gamma,B0,10,zipf_alpha_x_cache_gamma,alpha=1.0;gamma=1.0,80.0,0.82,0.82,0.55,1.0,3,5,3,0.9,0.15,1.0,56.2811,0.348608,0.110239,56.065031,56.497169,101.3435,0.096783,0.030605,101.283513,101.403487,96.9877,0.038736,0.012249,96.963691,97.011709,103.8466,0.186186,0.058877,103.7312,103.962,0.55021,0.004652,0.001471,0.547327,0.553093,0.44979,0.004652,0.001471,0.446907,0.452673,0.0,0.0,0.0,0.0,0.0,1.0,0.0,0.0,1.0,1.0,0.0,0.0,0.0,0.0,0.0,0.0,0.0,0.0,0.0,0.0,,
zipf_alpha_x_cache_gamma,B1,10,zipf_alpha_x_cache_gamma,alpha=1.0;gamma=1.0,80.0,0.82,0.82,0.55,1.0,3,5,3,0.9,0.15,1.0,55.6931,0.30843,0.097534,55.501933,55.884267,127.1733,0.108411,0.034283,127.106106,127.240494,95.682,0.378157,0.119584,95.447616,95.916384,129.7698,0.167179,0.052867,129.666181,129.873419,0.76991,0.002873,0.000908,0.76813,0.77169,0.44979,0.004652,0.001471,0.446907,0.452673,0.44979,0.004652,0.001471,0.446907,0.452673,0.0,0.0,0.0,0.0,0.0,0.51158,0.00633,0.002002,0.507657,0.515503,0.0,0.0,0.0,0.0,0.0,,
zipf_alpha_x_cache_gamma,B2,10,zipf_alpha_x_cache_gamma,alpha=1.0;gamma=1.0,80.0,0.82,0.82,0.55,1.0,3,5,3,0.9,0.15,1.0,53.2649,0.325962,0.103078,53.062867,53.466933,105.3281,0.879802,0.278218,104.782793,105.873407,90.2815,0.201151,0.063609,90.156825,90.406175,123.8264,0.268588,0.084935,123.659927,123.992873,0.68074,0.003102,0.000981,0.678818,0.682662,0.44979,0.004652,0.001471,0.446907,0.452673,0.17198,0.003869,0.001223,0.169582,0.174378,0.61767,0.005435,0.001719,0.614301,0.621039,0.24098,0.00795,0.002514,0.236053,0.245907,0.38233,0.005435,0.001719,0.378961,0.385699,2.4282,5.4005
zipf_alpha_x_cache_gamma,B0,10,zipf_alpha_x_cache_gamma,alpha=1.0;gamma=1.4,80.0,0.82,0.82,0.55,1.0,3,5,3,0.9,0.15,1.4,56.2779,0.315642,0.099815,56.082263,56.473537,101.4301,0.128708,0.040701,101.350326,101.509874,97.0248,0.045621,0.014427,96.996524,97.053076,103.8748,0.222588,0.070389,103.736838,104.012762,0.55035,0.004223,0.001335,0.547733,0.552967,0.44965,0.004223,0.001335,0.447033,0.452267,0.0,0.0,0.0,0.0,0.0,1.0,0.0,0.0,1.0,1.0,0.0,0.0,0.0,0.0,0.0,0.0,0.0,0.0,0.0,0.0,,
zipf_alpha_x_cache_gamma,B1,10,zipf_alpha_x_cache_gamma,alpha=1.0;gamma=1.4,80.0,0.82,0.82,0.55,1.0,3,5,3,0.9,0.15,1.4,56.8038,0.445974,0.141029,56.527383,57.080217,127.5177,0.187776,0.05938,127.401315,127.634085,98.193,0.466288,0.147453,97.903992,98.482008,130.1117,0.233533,0.07385,129.966955,130.256445,0.75142,0.004846,0.001533,0.748416,0.754424,0.44965,0.004223,0.001335,0.447033,0.452267,0.44965,0.004223,0.001335,0.447033,0.452267,0.0,0.0,0.0,0.0,0.0,0.55279,0.007441,0.002353,0.548178,0.557402,0.0,0.0,0.0,0.0,0.0,,
zipf_alpha_x_cache_gamma,B2,10,zipf_alpha_x_cache_gamma,alpha=1.0;gamma=1.4,80.0,0.82,0.82,0.55,1.0,3,5,3,0.9,0.15,1.4,53.7646,0.341804,0.108088,53.552747,53.976453,103.1255,0.381913,0.120771,102.888788,103.362212,91.4348,0.223177,0.070575,91.296473,91.573127,122.3204,0.176711,0.055881,122.210873,122.429927,0.65477,0.005441,0.001721,0.651398,0.658142,0.44965,0.004223,0.001335,0.447033,0.452267,0.134,0.003855,0.001219,0.131611,0.136389,0.70198,0.008948,0.00283,0.696434,0.707526,0.22075,0.006994,0.002212,0.216415,0.225085,0.29802,0.008948,0.00283,0.292474,0.303566,3.0392,6.7582
zipf_alpha_x_cache_gamma,B0,10,zipf_alpha_x_cache_gamma,alpha=1.0;gamma=2.0,80.0,0.82,0.82,0.55,1.0,3,5,3,0.9,0.15,2.0,56.2803,0.366395,0.115864,56.053206,56.507394,101.4213,0.194166,0.061401,101.300955,101.541645,96.9979,0.068586,0.021689,96.95539,97.04041,103.853,0.295275,0.093374,103.669987,104.036013,0.55029,0.005113,0.001617,0.547121,0.553459,0.44971,0.005113,0.001617,0.446541,0.452879,0.0,0.0,0.0,0.0,0.0,1.0,0.0,0.0,1.0,1.0,0.0,0.0,0.0,0.0,0.0,0.0,0.0,0.0,0.0,0.0,,
zipf_alpha_x_cache_gamma,B1,10,zipf_alpha_x_cache_gamma,alpha=1.0;gamma=2.0,80.0,0.82,0.82,0.55,1.0,3,5,3,0.9,0.15,2.0,57.4638,0.419831,0.132762,57.203586,57.724014,127.6345,0.167624,0.053007,127.530606,127.738394,99.6312,0.674387,0.21326,99.213211,100.049189,130.234,0.255454,0.080782,130.075668,130.392332,0.74043,0.00496,0.001569,0.737356,0.743504,0.44971,0.005113,0.001617,0.446541,0.452879,0.44971,0.005113,0.001617,0.446541,0.452879,0.0,0.0,0.0,0.0,0.0,0.57722,0.010798,0.003415,0.570527,0.583913,0.0,0.0,0.0,0.0,0.0,,
zipf_alpha_x_cache_gamma,B2,10,zipf_alpha_x_cache_gamma,alpha=1.0;gamma=2.0,80.0,0.82,0.82,0.55,1.0,3,5,3,0.9,0.15,2.0,54.1363,0.346758,0.109655,53.921377,54.351223,102.4376,0.305477,0.0966,102.248264,102.626936,92.2316,0.423567,0.133944,91.969071,92.494129,117.9861,4.988079,1.577369,114.894457,121.077743,0.63751,0.004897,0.001549,0.634475,0.640545,0.44971,0.005113,0.001617,0.446541,0.452879,0.11033,0.004023,0.001272,0.107836,0.112824,0.75468,0.007537,0.002383,0.750008,0.759352,0.20976,0.02007,0.006347,0.19732,0.2222,0.24532,0.007537,0.002383,0.240648,0.249992,3.3275,7.3996
zipf_alpha_x_cache_gamma,B0,10,zipf_alpha_x_cache_gamma,alpha=1.1;gamma=0.3,80.0,0.82,0.82,0.55,1.1,3,5,3,0.9,0.15,0.3,56.0316,0.324481,0.10261,55.830484,56.232716,101.4047,0.136668,0.043218,101.319993,101.489407,96.9877,0.060713,0.019199,96.95007,97.02533,103.8976,0.220227,0.069642,103.761102,104.034098,0.5536,0.004224,0.001336,0.550982,0.556218,0.4464,0.004224,0.001336,0.443782,0.449018,0.0,0.0,0.0,0.0,0.0,1.0,0.0,0.0,1.0,1.0,0.0,0.0,0.0,0.0,0.0,0.0,0.0,0.0,0.0,0.0,,
zipf_alpha_x_cache_gamma,B1,10,zipf_alpha_x_cache_gamma,alpha=1.1;gamma=0.3,80.0,0.82,0.82,0.55,1.1,3,5,3,0.9,0.15,0.3,49.2817,0.354593,0.112132,49.061921,49.501479,125.0315,0.132399,0.041868,124.949438,125.113562,81.8662,0.436338,0.137982,81.595755,82.136645,127.8727,0.250957,0.07936,127.717155,128.028245,0.87442,0.003423,0.001082,0.872299,0.876541,0.4464,0.004224,0.001336,0.443782,0.449018,0.4464,0.004224,0.001336,0.443782,0.449018,0.0,0.0,0.0,0.0,0.0,0.28131,0.006695,0.002117,0.27716,0.28546,0.0,0.0,0.0,0.0,0.0,,
zipf_alpha_x_cache_gamma,B2,10,zipf_alpha_x_cache_gamma,alpha=1.1;gamma=0.3,80.0,0.82,0.82,0.55,1.1,3,5,3,0.9,0.15,0.3,48.6731,0.323924,0.102434,48.47233,48.87387,123.6832,0.178084,0.056315,123.572823,123.793577,80.5026,0.344354,0.108894,80.289167,80.716033,126.7652,0.200729,0.063476,126.640787,126.889613,0.86242,0.003849,0.001217,0.860034,0.864806,0.4464,0.004224,0.001336,0.443782,0.449018,0.39895,0.002707,0.000856,0.397272,0.400628,0.10627,0.005157,0.001631,0.103073,0.109467,0.22592,0.004729,0.001495,0.222989,0.228851,0.89373,0.005157,0.001631,0.890533,0.896927,0.6086,1.3636
zipf_alpha_x_cache_gamma,B0,10,zipf_alpha_x_cache_gamma,alpha=1.1;gamma=0.6,80.0,0.82,0.82,0.55,1.1,3,5,3,0.9,0.15,0.6,56.2823,0.513615,0.162419,55.963958,56.600642,101.3834,0.196986,0.062293,101.261307,101.505493,97.0057,0.065037,0.020566,96.96539,97.04601,103.8778,0.243587,0.077029,103.726823,104.028777,0.55004,0.007313,0.002313,0.545507,0.554573,0.44996,0.007313,0.002313,0.445427,0.454493,0.0,0.0,0.0,0.0,0.0,1.0,0.0,0.0,1.0,1.0,0.0,0.0,0.0,0.0,0.0,0.0,0.0,0.0,0.0,0.0,,
zipf_alpha_x_cache_gamma,B1,10,zipf_alpha_x_cache_gamma,alpha=1.1;gamma=0.6,80.0,0.82,0.82,0.55,1.1,3,5,3,0.9,0.15,0.6,52.9103,0.611632,0.193415,52.531206,53.289394,126.4383,0.167256,0.052891,126.334634,126.541966,89.5081,0.567774,0.179546,89.15619,89.86001,129.1013,0.224461,0.070981,128.962178,129.240422,0.81622,0.006088,0.001925,0.812446,0.819994,0.44996,0.007313,0.002313,0.445427,0.454493,0.44996,0.007313,0.002313,0.445427,0.454493,0.0,0.0,0.0,0.0,0.0,0.40837,0.009156,0.002895,0.402695,0.414045,0.0,0.0,0.0,0.0,0.0,,
zipf_alpha_x_cache_gamma,B2,10,zipf_alpha_x_cache_gamma,alpha=1.1;gamma=0.6,80.0,0.82,0.82,0.55,1.1,3,5,3,0.9,0.15,0.6,51.4618,0.515302,0.162953,51.142412,51.781188,122.5196,0.271364,0.085813,122.351407,122.687793,86.2903,0.326877,0.103368,86.087699,86.492901,125.7013,0.230634,0.072933,125.558351,125.844249,0.76061,0.006003,0.001898,0.756889,0.764331,0.44996,0.007313,0.002313,0.445427,0.454493,0.27906,0.005285,0.001671,0.275784,0.282336,0.3798,0.00657,0.002077,0.375728,0.383872,0.24538,0.007472,0.002363,0.240749,0.250011,0.6202,0.00657,0.002077,0.616128,0.624272,1.4485,3.2178
zipf_alpha_x_cache_gamma,B0,10,zipf_alpha_x_cache_gamma,alpha=1.1;gamma=1.0,80.0,0.82,0.82,0.55,1.1,3,5,3,0.9,0.15,1.0,56.2803,0.366395,0.115864,56.053206,56.507394,101.4213,0.194166,0.061401,101.300955,101.541645,96.9979,0.068586,0.021689,96.95539,97.04041,103.853,0.295275,0.093374,103.669987,104.036013,0.55029,0.005113,0.001617,0.547121,0.553459,0.44971,0.005113,0.001617,0.446541,0.452879,0.0,0.0,0.0,0.0,0.0,1.0,0.0,0.0,1.0,1.0,0.0,0.0,0.0,0.0,0.0,0.0,0.0,0.0,0.0,0.0,,
zipf_alpha_x_cache_gamma,B1,10,zipf_alpha_x_cache_gamma,alpha=1.1;gamma=1.0,80.0,0.82,0.82,0.55,1.1,3,5,3,0.9,0.15,1.0,54.9984,0.348542,0.110219,54.782371,55.214429,127.0428,0.195251,0.061744,126.921782,127.163818,94.1499,0.631136,0.199583,93.758718,94.541082,129.6929,0.276709,0.087503,129.521394,129.864406,0.78152,0.004148,0.001312,0.778949,0.784091,0.44971,0.005113,0.001617,0.446541,0.452879,0.44971,0.005113,0.001617,0.446541,0.452879,0.0,0.0,0.0,0.0,0.0,0.48586,0.010107,0.003196,0.479595,0.492125,0.0,0.0,0.0,0.0,0.0,,
zipf_alpha_x_cache_gamma,B2,10,zipf_alpha_x_cache_gamma,alpha=1.1;gamma=1.0,80.0,0.82,0.82,0.55,1.1,3,5,3,0.9,0.15,1.0,52.7157,0.277667,0.087806,52.5436,52.8878,107.1368,1.590743,0.503037,106.150847,108.122753,89.0731,0.397513,0.125705,88.826719,89.319481,124.1889,0.34176,0.108074,123.977075,124.400725,0.7013,0.003875,0.001225,0.698898,0.703702,0.44971,0.005113,0.001617,0.446541,0.452879,0.19628,0.005714,0.001807,0.192739,0.199821,0.56357,0.00989,0.003128,0.55744,0.5697,0.23072,0.011544,0.003651,0.223565,0.237875,0.43643,0.00989,0.003128,0.4303,0.44256,2.2827,5.0768
zipf_alpha_x_cache_gamma,B0,10,zipf_alpha_x_cache_gamma,alpha=1.1;gamma=1.4,80.0,0.82,0.82,0.55,1.1,3,5,3,0.9,0.15,1.4,56.1788,0.31515,0.099659,55.983468,56.374132,101.3659,0.093155,0.029458,101.308162,101.423638,96.9959,0.040339,0.012756,96.970898,97.020902,103.8489,0.202615,0.064072,103.723318,103.974482,0.55145,0.004082,0.001291,0.54892,0.55398,0.44855,0.004082,0.001291,0.44602,0.45108,0.0,0.0,0.0,0.0,0.0,1.0,0.0,0.0,1.0,1.0,0.0,0.0,0.0,0.0,0.0,0.0,0.0,0.0,0.0,0.0,,
zipf_alpha_x_cache_gamma,B1,10,zipf_alpha_x_cache_gamma,alpha=1.1;gamma=1.4,80.0,0.82,0.82,0.55,1.1,3,5,3,0.9,0.15,1.4,55.9707,0.37841,0.119664,55.736159,56.205241,127.2664,0.193456,0.061176,127.146495,127.386305,96.532,0.42442,0.134213,96.268942,96.795058,129.8868,0.284845,0.090076,129.710252,130.063348,0.76424,0.003937,0.001245,0.7618,0.76668,0.44855,0.004082,0.001291,0.44602,0.45108,0.44855,0.004082,0.001291,0.44602,0.45108,0.0,0.0,0.0,0.0,0.0,0.52562,0.006774,0.002142,0.521422,0.529818,0.0,0.0,0.0,0.0,0.0,,
zipf_alpha_x_cache_gamma,B2,10,zipf_alpha_x_cache_gamma,alpha=1.1;gamma=1.4,80.0,0.82,0.82,0.55,1.1,3,5,3,0.9,0.15,1.4,53.1549,0.267246,0.084511,52.989259,53.320541,103.314,0.317156,0.100293,103.117425,103.510575,90.2554,0.138803,0.043893,90.169369,90.341431,122.8881,0.360925,0.114135,122.664396,123.111804,0.67423,0.003071,0.000971,0.672327,0.676133,0.44855,0.004082,0.001291,0.44602,0.45108,0.15511,0.002335,0.000739,0.153662,0.156558,0.65419,0.004819,0.001524,0.651203,0.657177,0.20839,0.009072,0.002869,0.202767,0.214013,0.34581,0.004819,0.001524,0.342823,0.348797,2.8158,6.2766
zipf_alpha_x_cache_gamma,B0,10,zipf_alpha_x_cache_gamma,alpha=1.1;gamma=2.0,80.0,0.82,0.82,0.55,1.1,3,5,3,0.9,0.15,2.0,56.3397,0.24849,0.078579,56.185684,56.493716,101.3995,0.138951,0.04394,101.313377,101.485623,97.0044,0.05738,0.018145,96.968835,97.039965,103.8589,0.256911,0.081242,103.699665,104.018135,0.54954,0.003123,0.000988,0.547604,0.551476,0.45046,0.003123,0.000988,0.448524,0.452396,0.0,0.0,0.0,0.0,0.0,1.0,0.0,0.0,1.0,1.0,0.0,0.0,0.0,0.0,0.0,0.0,0.0,0.0,0.0,0.0,,
zipf_alpha_x_cache_gamma,B1,10,zipf_alpha_x_cache_gamma,alpha=1.1;gamma=2.0,80.0,0.82,0.82,0.55,1.1,3,5,3,0.9,0.15,2.0,56.8356,0.327861,0.103679,56.63239,57.03881,127.5009,0.174162,0.055075,127.392953,127.608847,98.1047,0.372083,0.117663,97.874081,98.335319,130.0924,0.198019,0.062619,129.969667,130.215133,0.75149,0.0034,0.001075,0.749383,0.753597,0.45046,0.003123,0.000988,0.448524,0.452396,0.45046,0.003123,0.000988,0.448524,0.452396,0.0,0.0,0.0,0.0,0.0,0.55168,0.005965,0.001886,0.547983,0.555377,0.0,0.0,0.0,0.0,0.0,,
zipf_alpha_x_cache_gamma,B2,10,zipf_alpha_x_cache_gamma,alpha=1.1;gamma=2.0,80.0,0.82,0.82,0.55,1.1,3,5,3,0.9,0.15,2.0,53.6925,0.23,0.072732,53.549944,53.835056,103.1213,0.278907,0.088198,102.948431,103.294169,91.1279,0.177674,0.056185,91.017777,91.238023,122.4684,0.396881,0.125505,122.222411,122.714389,0.65876,0.003216,0.001017,0.656766,0.660754,0.45046,0.003123,0.000988,0.448524,0.452396,0.1395,0.00255,0.000806,0.13792,0.14108,0.69029,0.005927,0.001874,0.686616,0.693964,0.217,0.010816,0.00342,0.210296,0.223704,0.30971,0.005927,0.001874,0.306036,0.313384,3.1431,6.9768
zipf_alpha_x_cache_gamma,B0,10,zipf_alpha_x_cache_gamma,alpha=1.3;gamma=0.3,80.0,0.82,0.82,0.55,1.3,3,5,3,0.9,0.15,0.3,56.1713,0.250219,0.079126,56.016213,56.326387,101.3407,0.160719,0.050824,101.241086,101.440314,96.9735,0.048555,0.015355,96.943405,97.003595,103.7947,0.230163,0.072784,103.652043,103.937357,0.55143,0.003078,0.000973,0.549522,0.553338,0.44857,0.003078,0.000973,0.446662,0.450478,0.0,0.0,0.0,0.0,0.0,1.0,0.0,0.0,1.0,1.0,0.0,0.0,0.0,0.0,0.0,0.0,0.0,0.0,0.0,0.0,,
zipf_alpha_x_cache_gamma,B1,10,zipf_alpha_x_cache_gamma,alpha=1.3;gamma=0.3,80.0,0.82,0.82,0.55,1.3,3,5,3,0.9,0.15,0.3,48.4842,0.288899,0.091358,48.305139,48.663261,124.5404,0.247179,0.078165,124.387197,124.693603,79.8362,0.401544,0.126979,79.587321,80.085079,127.3461,0.211663,0.066934,127.21491,127.47729,0.88888,0.003145,0.000994,0.886931,0.890829,0.44857,0.003078,0.000973,0.446662,0.450478,0.44857,0.003078,0.000973,0.446662,0.450478,0.0,0.0,0.0,0.0,0.0,0.24772,0.006388,0.00202,0.243761,0.251679,0.0,0.0,0.0,0.0,0.0,,
zipf_alpha_x_cache_gamma,B2,10,zipf_alpha_x_cache_gamma,alpha=1.3;gamma=0.3,80.0,0.82,0.82,0.55,1.3,3,5,3,0.9,0.15,0.3,47.9541,0.23357,0.073861,47.809332,48.098868,123.3094,0.152114,0.048103,123.215119,123.403681,78.6549,0.295355,0.093399,78.471837,78.837963,126.3934,0.228321,0.072201,126.251885,126.534915,0.87958,0.002365,0.000748,0.878114,0.881046,0.44857,0.003078,0.000973,0.446662,0.450478,0.40971,0.003014,0.000953,0.407842,0.411578,0.08663,0.003535,0.001118,0.084439,0.088821,0.19906,0.005637,0.001783,0.195566,0.202554,0.91337,0.003535,0.001118,0.911179,0.915561,0.5301,1.1813
zipf_alpha_x_cache_gamma,B0,10,zipf_alpha_x_cache_gamma,alpha=1.3;gamma=0.6,80.0,0.82,0.82,0.55,1.3,3,5,3,0.9,0.15,0.6,56.1183,0.408773,0.129265,55.86494,56.37166,101.2687,0.173155,0.054756,101.161377,101.376023,96.9696,0.073644,0.023288,96.923955,97.015245,103.7517,0.187717,0.059361,103.635352,103.868048,0.55212,0.005454,0.001725,0.548739,0.555501,0.44788,0.005454,0.001725,0.444499,0.451261,0.0,0.0,0.0,0.0,0.0,1.0,0.0,0.0,1.0,1.0,0.0,0.0,0.0,0.0,0.0,0.0,0.0,0.0,0.0,0.0,,
zipf_alpha_x_cache_gamma,B1,10,zipf_alpha_x_cache_gamma,alpha=1.3;gamma=0.6,80.0,0.82,0.82,0.55,1.3,3,5,3,0.9,0.15,0.6,51.304,0.396669,0.125438,51.058142,51.549858,125.9125,0.167674,0.053023,125.808574,126.016426,86.2211,0.508812,0.1609,85.905735,86.536465,128.5246,0.189478,0.059918,128.40716,128.64204,0.84137,0.004302,0.00136,0.838703,0.844037,0.44788,0.005454,0.001725,0.444499,0.451261,0.44788,0.005454,0.001725,0.444499,0.451261,0.0,0.0,0.0,0.0,0.0,0.35419,0.009108,0.00288,0.348545,0.359835,0.0,0.0,0.0,0.0,0.0,,
zipf_alpha_x_cache_gamma,B2,10,zipf_alpha_x_cache_gamma,alpha=1.3;gamma=0.6,80.0,0.82,0.82,0.55,1.3,3,5,3,0.9,0.15,0.6,50.0952,0.343666,0.108677,49.882193,50.308207,122.4401,0.23321,0.073747,122.295555,122.584645,83.5225,0.376949,0.119202,83.288864,83.756136,125.7589,0.204946,0.06481,125.631873,125.885927,0.79966,0.003916,0.001238,0.797233,0.802087,0.44788,0.005454,0.001725,0.444499,0.451261,0.31533,0.006211,0.001964,0.311481,0.319179,0.29599,0.007381,0.002334,0.291415,0.300565,0.21501,0.00859,0.002716,0.209686,0.220334,0.70401,0.007381,0.002334,0.699435,0.708585,1.2088,2.6986
zipf_alpha_x_cache_gamma,B0,10,zipf_alpha_x_cache_gamma,alpha=1.3;gamma=1.0,80.0,0.82,0.82,0.55,1.3,3,5,3,0.9,0.15,1.0,56.2499,0.289948,0.09169,56.070188,56.429612,101.466,0.164066,0.051882,101.364311,101.567689,97.0302,0.071554,0.022627,96.98585,97.07455,103.9007,0.251832,0.079636,103.744613,104.056787,0.55089,0.003645,0.001153,0.548631,0.553149,0.44911,0.003645,0.001153,0.446851,0.451369,0.0,0.0,0.0,0.0,0.0,1.0,0.0,0.0,1.0,1.0,0.0,0.0,0.0,0.0,0.0,0.0,0.0,0.0,0.0,0.0,,
zipf_alpha_x_cache_gamma,B1,10,zipf_alpha_x_cache_gamma,alpha=1.3;gamma=1.0,80.0,0.82,0.82,0.55,1.3,3,5,3,0.9,0.15,1.0,53.3052,0.371968,0.117627,53.074652,53.535748,126.5502,0.126783,0.040092,126.471619,126.628781,90.4732,0.493287,0.155991,90.167457,90.778943,129.2082,0.138638,0.043841,129.122271,129.294129,0.80955,0.003923,0.001241,0.807119,0.811981,0.44911,0.003645,0.001153,0.446851,0.451369,0.44911,0.003645,0.001153,0.446851,0.451369,0.0,0.0,0.0,0.0,0.0,0.42405,0.007412,0.002344,0.419456,0.428644,0.0,0.0,0.0,0.0,0.0,,
zipf_alpha_x_cache_gamma,B2,10,zipf_alpha_x_cache_gamma,alpha=1.3;gamma=1.0,80.0,0.82,0.82,0.55,1.3,3,5,3,0.9,0.15,1.0,51.3428,0.270294,0.085474,51.17527,51.51033,107.6356,2.414103,0.763406,106.139324,109.131876,86.1047,0.302013,0.095505,85.91751,86.29189,124.385,0.341224,0.107904,124.173507,124.596493,0.74499,0.003471,0.001098,0.742838,0.747142,0.44911,0.003645,0.001153,0.446851,0.451369,0.24068,0.004138,0.001309,0.238115,0.243245,0.46411,0.007375,0.002332,0.459539,0.468681,0.19354,0.007039,0.002226,0.189177,0.197903,0.53589,0.007375,0.002332,0.531319,0.540461,1.9624,4.3685
zipf_alpha_x_cache_gamma,B0,10,zipf_alpha_x_cache_gamma,alpha=1.3;gamma=1.4,80.0,0.82,0.82,0.55,1.3,3,5,3,0.9,0.15,1.4,56.3066,0.304686,0.09635,56.117754,56.495446,101.3582,0.053866,0.017034,101.324814,101.391586,96.9823,0.019978,0.006318,96.969917,96.994683,103.8552,0.112192,0.035478,103.785663,103.924737,0.54987,0.003988,0.001261,0.547398,0.552342,0.45013,0.003988,0.001261,0.447658,0.452602,0.0,0.0,0.0,0.0,0.0,1.0,0.0,0.0,1.0,1.0,0.0,0.0,0.0,0.0,0.0,0.0,0.0,0.0,0.0,0.0,,
zipf_alpha_x_cache_gamma,B1,10,zipf_alpha_x_cache_gamma,alpha=1.3;gamma=1.4,80.0,0.82,0.82,0.55,1.3,3,5,3,0.9,0.15,1.4,54.3536,0.343568,0.108646,54.140655,54.566545,126.8648,0.106723,0.033749,126.798653,126.930947,92.6435,0.397463,0.125689,92.39715,92.88985,129.5047,0.165897,0.052461,129.401876,129.607524,0.79248,0.003545,0.001121,0.790283,0.794677,0.45013,0.003988,0.001261,0.447658,0.452602,0.45013,0.003988,0.001261,0.447658,0.452602,0.0,0.0,0.0,0.0,0.0,0.46102,0.006506,0.002057,0.456988,0.465052,0.0,0.0,0.0,0.0,0.0,,
zipf_alpha_x_cache_gamma,B2,10,zipf_alpha_x_cache_gamma,alpha=1.3;gamma=1.4,80.0,0.82,0.82,0.55,1.3,3,5,3,0.9,0.15,1.4,51.9968,0.323757,0.102381,51.796133,52.197467,103.2141,0.433976,0.137235,102.945119,103.483081,87.4073,0.306492,0.096921,87.217334,87.597266,122.9884,0.239251,0.075658,122.840111,123.136689,0.71458,0.004351,0.001376,0.711883,0.717277,0.45013,0.003988,0.001261,0.447658,0.452602,0.19903,0.002242,0.000709,0.19764,0.20042,0.55783,0.004563,0.001443,0.555002,0.560658,0.17245,0.010148,0.003209,0.16616,0.17874,0.44217,0.004563,0.001443,0.439342,0.444998,2.3568,5.2362
zipf_alpha_x_cache_gamma,B0,10,zipf_alpha_x_cache_gamma,alpha=1.3;gamma=2.0,80.0,0.82,0.82,0.55,1.3,3,5,3,0.9,0.15,2.0,56.2268,0.39594,0.125207,55.981394,56.472206,101.3267,0.147885,0.046765,101.23504,101.41836,96.9761,0.039236,0.012407,96.951782,97.000418,103.7775,0.192705,0.060939,103.65806,103.89694,0.55088,0.005136,0.001624,0.547697,0.554063,0.44912,0.005136,0.001624,0.445937,0.452303,0.0,0.0,0.0,0.0,0.0,1.0,0.0,0.0,1.0,1.0,0.0,0.0,0.0,0.0,0.0,0.0,0.0,0.0,0.0,0.0,,
zipf_alpha_x_cache_gamma,B1,10,zipf_alpha_x_cache_gamma,alpha=1.3;gamma=2.0,80.0,0.82,0.82,0.55,1.3,3,5,3,0.9,0.15,2.0,55.0184,0.468186,0.148054,54.728215,55.308585,126.9648,0.162156,0.051278,126.864295,127.065305,94.2845,0.480632,0.151989,93.986601,94.582399,129.5464,0.185547,0.058675,129.431397,129.661403,0.78061,0.004668,0.001476,0.777717,0.783503,0.44912,0.005136,0.001624,0.445937,0.452303,0.44912,0.005136,0.001624,0.445937,0.452303,0.0,0.0,0.0,0.0,0.0,0.48847,0.007938,0.00251,0.48355,0.49339,0.0,0.0,0.0,0.0,0.0,,
zipf_alpha_x_cache_gamma,B2,10,zipf_alpha_x_cache_gamma,alpha=1.3;gamma=2.0,80.0,0.82,0.82,0.55,1.3,3,5,3,0.9,0.15,2.0,52.3026,0.36469,0.115325,52.076563,52.528637,102.4465,0.374827,0.118531,102.21418,102.67882,88.2382,0.17893,0.056583,88.127298,88.349102,122.0319,0.342163,0.108202,121.819825,122.243975,0.69825,0.003232,0.001022,0.696247,0.700253,0.44912,0.005136,0.001624,0.445937,0.452303,0.17564,0.004231,0.001338,0.173017,0.178263,0.60895,0.005953,0.001882,0.60526,0.61264,0.16084,0.008263,0.002613,0.155719,0.165961,0.39105,0.005953,0.001882,0.38736,0.39474,2.7158,6.0463
zipf_alpha_x_cache_gamma,B0,10,zipf_alpha_x_cache_gamma,alpha=1.5;gamma=0.3,80.0,0.82,0.82,0.55,1.5,3,5,3,0.9,0.15,0.3,56.285,0.339008,0.107204,56.074881,56.495119,101.5078,0.144585,0.045722,101.418185,101.597415,97.0444,0.05801,0.018344,97.008445,97.080355,103.9945,0.197525,0.062463,103.872072,104.116928,0.55031,0.004506,0.001425,0.547517,0.553103,0.44969,0.004506,0.001425,0.446897,0.452483,0.0,0.0,0.0,0.0,0.0,1.0,0.0,0.0,1.0,1.0,0.0,0.0,0.0,0.0,0.0,0.0,0.0,0.0,0.0,0.0,,
zipf_alpha_x_cache_gamma,B1,10,zipf_alpha_x_cache_gamma,alpha=1.5;gamma=0.3,80.0,0.82,0.82,0.55,1.5,3,5,3,0.9,0.15,0.3,47.5606,0.288787,0.091322,47.381608,47.739592,124.0487,0.216282,0.068394,123.914647,124.182753,77.6444,0.487014,0.154007,77.342546,77.946254,126.8504,0.240594,0.076082,126.701278,126.999522,0.90557,0.003536,0.001118,0.903378,0.907762,0.44969,0.004506,0.001425,0.446897,0.452483,0.44969,0.004506,0.001425,0.446897,0.452483,0.0,0.0,0.0,0.0,0.0,0.21002,0.008048,0.002545,0.205032,0.215008,0.0,0.0,0.0,0.0,0.0,,
zipf_alpha_x_cache_gamma,B2,10,zipf_alpha_x_cache_gamma,alpha=1.5;gamma=0.3,80.0,0.82,0.82,0.55,1.5,3,5,3,0.9,0.15,0.3,47.2254,0.249039,0.078753,47.071044,47.379756,122.6017,0.25622,0.081024,122.442893,122.760507,76.8998,0.475569,0.150388,76.605039,77.194561,125.8527,0.20289,0.064159,125.726948,125.978452,0.89424,0.003313,0.001048,0.892186,0.896294,0.44969,0.004506,0.001425,0.446897,0.452483,0.41344,0.005233,0.001655,0.410197,0.416683,0.08063,0.004672,0.001477,0.077734,0.083526,0.16816,0.008746,0.002766,0.162739,0.173581,0.91937,0.004672,0.001477,0.916474,0.922266,0.3352,0.7446
zipf_alpha_x_cache_gamma,B0,10,zipf_alpha_x_cache_gamma,alpha=1.5;gamma=0.6,80.0,0.82,0.82,0.55,1.5,3,5,3,0.9,0.15,0.6,56.2183,0.215149,0.068036,56.084949,56.351651,101.3307,0.120166,0.038,101.256221,101.405179,97.0026,0.052305,0.01654,96.970181,97.035019,103.8493,0.150033,0.047445,103.756308,103.942292,0.55104,0.002994,0.000947,0.549184,0.552896,0.44896,0.002994,0.000947,0.447104,0.450816,0.0,0.0,0.0,0.0,0.0,1.0,0.0,0.0,1.0,1.0,0.0,0.0,0.0,0.0,0.0,0.0,0.0,0.0,0.0,0.0,,
zipf_alpha_x_cache_gamma,B1,10,zipf_alpha_x_cache_gamma,alpha=1.5;gamma=0.6,80.0,0.82,0.82,0.55,1.5,3,5,3,0.9,0.15,0.6,50.0848,0.214552,0.067847,49.951819,50.217781,125.3357,0.117757,0.037238,125.262714,125.408686,83.3414,0.379259,0.119932,83.106333,83.576467,128.0312,0.137783,0.043571,127.945801,128.116599,0.86278,0.002822,0.000892,0.861031,0.864529,0.44896,0.002994,0.000947,0.447104,0.450816,0.44896,0.002994,0.000947,0.447104,0.450816,0.0,0.0,0.0,0.0,0.0,0.30563,0.006096,0.001928,0.301852,0.309408,0.0,0.0,0.0,0.0,0.0,,
zipf_alpha_x_cache_gamma,B2,10,zipf_alpha_x_cache_gamma,alpha=1.5;gamma=0.6,80.0,0.82,0.82,0.55,1.5,3,5,3,0.9,0.15,0.6,49.1161,0.145233,0.045927,49.026084,49.206116,122.4259,0.204973,0.064818,122.298856,122.552944,81.1839,0.210142,0.066453,81.053653,81.314147,125.652,0.212147,0.067087,125.52051,125.78349,0.83238,0.001894,0.000599,0.831206,0.833554,0.44896,0.002994,0.000947,0.447104,0.450816,0.34922,0.002241,0.000709,0.347831,0.350609,0.22212,0.004906,0.001551,0.21908,0.22516,0.19438,0.005234,0.001655,0.191136,0.197624,0.77788,0.004906,0.001551,0.77484,0.78092,0.9687,2.1575
zipf_alpha_x_cache_gamma,B0,10,zipf_alpha_x_cache_gamma,alpha=1.5;gamma=1.0,80.0,0.82,0.82,0.55,1.5,3,5,3,0.9,0.15,1.0,56.3385,0.309352,0.097826,56.146762,56.530238,101.3933,0.146652,0.046376,101.302404,101.484196,96.9913,0.045321,0.014332,96.96321,97.01939,103.8432,0.197862,0.06257,103.720564,103.965836,0.54942,0.004019,0.001271,0.546929,0.551911,0.45058,0.004019,0.001271,0.448089,0.453071,0.0,0.0,0.0,0.0,0.0,1.0,0.0,0.0,1.0,1.0,0.0,0.0,0.0,0.0,0.0,0.0,0.0,0.0,0.0,0.0,,
zipf_alpha_x_cache_gamma,B1,10,zipf_alpha_x_cache_gamma,alpha=1.5;gamma=1.0,80.0,0.82,0.82,0.55,1.5,3,5,3,0.9,0.15,1.0,51.9532,0.301016,0.095189,51.766629,52.139771,126.0331,0.191284,0.060489,125.914541,126.151659,87.26,0.566484,0.179138,86.90889,87.61111,128.6284,0.257665,0.081481,128.468697,128.788103,0.83278,0.003892,0.001231,0.830368,0.835192,0.45058,0.004019,0.001271,0.448089,0.453071,0.45058,0.004019,0.001271,0.448089,0.453071,0.0,0.0,0.0,0.0,0.0,0.37114,0.009142,0.002891,0.365473,0.376807,0.0,0.0,0.0,0.0,0.0,,
zipf_alpha_x_cache_gamma,B2,10,zipf_alpha_x_cache_gamma,alpha=1.5;gamma=1.0,80.0,0.82,0.82,0.55,1.5,3,5,3,0.9,0.15,1.0,50.3541,0.231493,0.073205,50.210619,50.497581,120.9427,0.269198,0.085128,120.775849,121.109551,83.7109,0.310868,0.098305,83.518222,83.903578,124.7146,0.237623,0.075143,124.56732,124.86188,0.78298,0.003381,0.001069,0.780885,0.785075,0.45058,0.004019,0.001271,0.448089,0.453071,0.28676,0.003332,0.001054,0.284695,0.288825,0.36357,0.006338,0.002004,0.359641,0.367499,0.18556,0.006412,0.002028,0.181586,0.189534,0.63643,0.006338,0.002004,0.632501,0.640359,1.5991,3.5491
zipf_alpha_x_cache_gamma,B0,10,zipf_alpha_x_cache_gamma,alpha=1.5;gamma=1.4,80.0,0.82,0.82,0.55,1.5,3,5,3,0.9,0.15,1.4,56.3985,0.40802,0.129027,56.145607,56.651393,101.4265,0.131885,0.041706,101.344757,101.508243,97.0176,0.068749,0.02174,96.974989,97.060211,103.8818,0.179826,0.056866,103.770343,103.993257,0.54877,0.005708,0.001805,0.545232,0.552308,0.45123,0.005708,0.001805,0.447692,0.454768,0.0,0.0,0.0,0.0,0.0,1.0,0.0,0.0,1.0,1.0,0.0,0.0,0.0,0.0,0.0,0.0,0.0,0.0,0.0,0.0,,
zipf_alpha_x_cache_gamma,B1,10,zipf_alpha_x_cache_gamma,alpha=1.5;gamma=1.4,80.0,0.82,0.82,0.55,1.5,3,5,3,0.9,0.15,1.4,52.774,0.426462,0.134859,52.509676,53.038324,126.4199,0.158095,0.049994,126.321912,126.517888,88.9857,0.519712,0.164347,88.663579,89.307821,129.0668,0.254698,0.080543,128.908936,129.224664,0.81975,0.004332,0.00137,0.817065,0.822435,0.45123,0.005708,0.001805,0.447692,0.454768,0.45123,0.005708,0.001805,0.447692,0.454768,0.0,0.0,0.0,0.0,0.0,0.39947,0.008331,0.002635,0.394306,0.404634,0.0,0.0,0.0,0.0,0.0,,
zipf_alpha_x_cache_gamma,B2,10,zipf_alpha_x_cache_gamma,alpha=1.5;gamma=1.4,80.0,0.82,0.82,0.55,1.5,3,5,3,0.9,0.15,1.4,50.8153,0.360512,0.114004,50.591853,51.038747,105.4164,0.75216,0.237854,104.950206,105.882594,84.645,0.32133,0.101613,84.445838,84.844162,124.0404,0.208561,0.065953,123.911132,124.169668,0.76174,0.004947,0.001564,0.758674,0.764806,0.45123,0.005708,0.001805,0.447692,0.454768,0.25697,0.005459,0.001726,0.253586,0.260354,0.43051,0.009579,0.003029,0.424573,0.436447,0.17125,0.005646,0.001786,0.16775,0.17475,0.56949,0.009579,0.003029,0.563553,0.575427,1.9587,4.3407
zipf_alpha_x_cache_gamma,B0,10,zipf_alpha_x_cache_gamma,alpha=1.5;gamma=2.0,80.0,0.82,0.82,0.55,1.5,3,5,3,0.9,0.15,2.0,56.2834,0.410965,0.129958,56.028682,56.538118,101.4076,0.166435,0.052631,101.304443,101.510757,96.9959,0.053366,0.016876,96.962824,97.028976,103.9343,0.215359,0.068103,103.800819,104.067781,0.55015,0.005459,0.001726,0.546766,0.553534,0.44985,0.005459,0.001726,0.446466,0.453234,0.0,0.0,0.0,0.0,0.0,1.0,0.0,0.0,1.0,1.0,0.0,0.0,0.0,0.0,0.0,0.0,0.0,0.0,0.0,0.0,,
zipf_alpha_x_cache_gamma,B1,10,zipf_alpha_x_cache_gamma,alpha=1.5;gamma=2.0,80.0,0.82,0.82,0.55,1.5,3,5,3,0.9,0.15,2.0,53.377,0.428729,0.135576,53.111271,53.642729,126.5441,0.226901,0.071752,126.403466,126.684734,90.5347,0.394684,0.12481,90.290072,90.779328,129.2219,0.338431,0.107021,129.012138,129.431662,0.80852,0.003786,0.001197,0.806173,0.810867,0.44985,0.005459,0.001726,0.446466,0.453234,0.44985,0.005459,0.001726,0.446466,0.453234,0.0,0.0,0.0,0.0,0.0,0.42565,0.006143,0.001943,0.421843,0.429457,0.0,0.0,0.0,0.0,0.0,,
zipf_alpha_x_cache_gamma,B2,10,zipf_alpha_x_cache_gamma,alpha=1.5;gamma=2.0,80.0,0.82,0.82,0.55,1.5,3,5,3,0.9,0.15,2.0,51.1347,0.331247,0.10475,50.929391,51.340009,103.3713,0.504034,0.15939,103.058896,103.683704,85.5514,0.178238,0.056364,85.440927,85.661873,123.2986,0.210432,0.066545,123.168173,123.429027,0.74328,0.004031,0.001275,0.740782,0.745778,0.44985,0.005459,0.001726,0.446466,0.453234,0.22997,0.005217,0.00165,0.226737,0.233203,0.48879,0.009719,0.003073,0.482766,0.494814,0.16017,0.004734,0.001497,0.157236,0.163104,0.51121,0.009719,0.003073,0.505186,0.517234,2.2423,4.9833
